time,accel_x,accel_y,accel_z,accel_uni,strain
0.0,-0.6,-1.0,0.0,,1.5
0.009810000000015862,-0.6,-1.0,0.0,,1.5
0.019630000000006476,0.0,-0.3,-0.1,,2.6
0.02943999999990865,0.0,-0.3,-0.1,,2.6
0.03924999999992451,0.0,-0.3,-0.1,,1.05
0.049069999999915126,-0.4,1.0,-0.1,,1.05
0.05887999999993099,-0.4,1.0,-0.1,-0.6,
0.06868999999994685,0.2,-0.8,0.5,,1.37
0.07850999999993746,0.2,-0.8,0.5,,1.37
0.08831999999995332,-0.3,-0.9,-0.4,,1.73
0.0980499999999438,-0.3,-0.9,-0.4,,1.73
0.1079499999999598,0.0,0.5,0.1,,1.37
0.11767999999995027,0.0,0.5,0.1,,1.37
0.12748999999996613,-0.2,0.3,-0.3,,1.27
0.137299999999982,-0.2,0.3,-0.3,,1.27
0.1471199999999726,-1.5,-0.6,-0.1,,1.37
0.15692999999998847,-1.5,-0.6,-0.1,,1.37
0.16674000000000433,-0.5,0.1,-0.2,-4.0,
0.17655999999999494,-0.5,0.1,-0.2,,1.05
0.1863700000000108,0.3,0.0,-0.1,,1.37
0.19617999999991298,0.3,0.0,-0.1,-2.0,
0.20600000000001728,-0.3,-1.2,0.4,,1.0
0.2157199999999193,-0.3,-1.2,0.4,,1.0
0.22553999999990992,-0.3,-1.2,0.4,,2.55
0.23534999999992579,-0.2,-0.3,-0.4,,2.55
0.24515999999994165,-0.2,-0.3,-0.4,,2.55
0.25497999999993226,0.6,0.3,-1.5,-2.0,
0.2647899999999481,0.6,0.3,-1.5,,1.18
0.274599999999964,-0.5,-1.2,-0.2,,2.28
0.2844199999999546,-0.5,-1.2,-0.2,,2.28
0.29422999999997046,0.5,0.0,-0.6,-4.8,
0.3040399999999863,0.5,0.0,-0.6,,1.78
0.31385999999997694,0.9,-0.6,0.1,-3.4,
0.3235899999999674,0.9,-0.6,0.1,-3.4,
0.33339999999998327,-0.6,1.2,-0.2,,1.69
0.3432099999999991,-0.6,1.2,-0.2,,1.69
0.35302999999998974,0.1,-0.2,-1.4,-2.6,
0.3628400000000056,0.1,-0.2,-1.4,,1.78
0.3726499999999078,0.4,-0.1,-0.3,,2.74
0.3824700000000121,0.4,-0.1,-0.3,0.4,
0.39227999999991425,-0.2,1.0,-0.3,0.2,
0.4020899999999301,-0.2,1.0,-0.3,,1.32
0.41190999999992073,0.4,0.3,1.3,0.8,
0.4217199999999366,0.4,0.3,1.3,,1.37
0.43152999999995245,0.4,0.3,1.3,,2.74
0.4412599999999429,0.6,-0.3,0.4,,2.74
0.4510699999999588,0.6,-0.3,0.4,,2.74
0.4608899999999494,-0.5,-0.1,-0.8,-1.0,
0.47069999999996526,-0.5,-0.1,-0.8,,2.28
0.4805099999999811,1.3,-0.2,0.1,,1.59
0.49032999999997173,1.3,-0.2,0.1,,1.59
0.5001399999999876,0.3,1.3,0.0,,2.28
0.5099500000000035,0.3,1.3,0.0,,2.28
0.5197699999999941,-0.4,0.1,-1.4,-0.6,
0.5295800000000099,-0.4,0.1,-1.4,,1.69
0.5393899999999121,-0.6,-0.3,-0.2,,1.0
0.5491200000000163,-0.6,-0.3,-0.2,,1.0
0.5589299999999184,0.2,0.5,0.4,,1.27
0.568749999999909,0.2,0.5,0.4,,1.27
0.5785599999999249,-0.8,0.2,1.5,,2.28
0.5883699999999408,-0.8,0.2,1.5,-2.4,
0.5981899999999314,-0.2,-0.2,0.0,,1.14
0.6079999999999472,-0.2,-0.2,0.0,,1.14
0.6178099999999631,-0.2,-0.2,0.0,,2.28
0.6276299999999537,1.1,-0.4,-0.3,,2.28
0.6374399999999696,1.1,-0.4,-0.3,,2.28
0.6472499999999854,1.1,0.2,-0.6,2.2,
0.6569799999999759,1.1,0.2,-0.6,,1.78
0.6667999999999665,0.3,0.2,0.1,,1.37
0.6766099999999824,0.3,0.2,0.1,2.2,
0.6864199999999983,0.8,-0.6,-1.1,,1.69
0.6962399999999889,0.8,-0.6,-1.1,,1.69
0.7060500000000047,0.4,0.9,0.1,1.6,
0.7158599999999069,0.4,0.9,0.1,,1.78
0.7256800000000112,0.2,0.9,0.0,,2.28
0.7354899999999134,0.2,0.9,0.0,-6.6,
0.7452999999999292,-0.7,0.0,0.5,-2.6,
0.7551199999999199,-0.7,0.0,0.5,,1.27
0.7648399999999356,0.2,0.1,-0.1,,1.18
0.7746599999999262,0.2,0.1,-0.1,,1.18
0.784469999999942,-1.1,0.7,0.3,,1.32
0.7942799999999579,-1.1,0.7,0.3,,1.32
0.8040999999999485,-1.1,-0.1,-0.1,,1.37
0.8139099999999644,-1.1,-0.1,-0.1,,1.37
0.8237199999999802,-1.1,-0.1,-0.1,,1.37
0.8335399999999709,-0.2,-1.6,0.5,,1.41
0.8433499999999867,-0.2,-1.6,0.5,,1.41
0.8531600000000026,-0.8,0.6,-0.3,,1.32
0.8629799999999932,-0.8,0.6,-0.3,,1.32
0.8727900000000091,0.1,0.4,-0.1,-0.6,
0.8825199999999995,0.1,0.4,-0.1,,1.18
0.8923300000000154,0.2,-0.4,0.2,,1.0
0.902150000000006,0.2,-0.4,0.2,,1.0
0.9119599999999082,0.3,0.4,-1.0,,1.0
0.921769999999924,0.3,0.4,-1.0,,1.0
0.9315899999999147,-0.3,0.2,0.3,-0.6,
0.9413999999999305,-0.3,0.2,0.3,,1.0
0.9512099999999464,-0.1,-1.4,-0.1,,2.28
0.961029999999937,-0.1,-1.4,-0.1,,2.28
0.9708399999999529,1.0,0.4,-0.1,,1.32
0.9806499999999687,1.0,0.4,-0.1,,1.32
0.9904699999999593,1.0,-0.2,0.6,,1.0
1.0002799999999752,1.0,-0.2,0.6,3.6,
1.0100099999999657,1.0,-0.2,0.6,,2.28
1.0198199999999815,-0.4,-1.0,0.4,,2.28
1.0296299999999974,-0.4,-1.0,0.4,-5.2,
1.039449999999988,1.4,0.2,0.1,,1.41
1.0492600000000039,1.4,0.2,0.1,,1.41
1.059069999999906,0.1,-1.5,-0.2,-5.2,
1.0688900000000103,0.1,-1.5,-0.2,,1.5
1.0786999999999125,0.2,-0.4,0.7,,1.0
1.0885099999999284,0.2,-0.4,0.7,3.6,
1.098329999999919,0.1,0.5,-0.3,,1.37
1.1081399999999348,0.1,0.5,-0.3,,1.37
1.1178699999999253,0.3,-1.2,0.1,,1.78
1.1276799999999412,0.3,-1.2,0.1,,1.78
1.137489999999957,0.1,-0.8,0.3,,1.0
1.1473099999999476,0.1,-0.8,0.3,-2.0,
1.1571199999999635,0.1,0.3,-0.4,,1.18
1.1669299999999794,0.1,0.3,-0.4,,1.18
1.17674999999997,0.6,-0.1,0.9,,1.05
1.1865599999999858,0.6,-0.1,0.9,,1.05
1.1963700000000017,0.6,-0.1,0.9,,1.0
1.2061899999999923,0.4,-0.3,-1.0,,1.0
1.2160000000000082,0.4,-0.3,-1.0,5.0,
1.2258099999999104,0.2,0.2,-0.5,,1.18
1.2356300000000147,0.2,0.2,-0.5,,1.18
1.2453600000000051,-0.2,-0.3,-0.1,,1.05
1.2551699999999073,-0.2,-0.3,-0.1,,1.05
1.2649799999999232,0.4,-1.2,0.4,,1.5
1.2747999999999138,0.4,-1.2,0.4,1.6,
1.2846099999999296,-1.6,0.5,0.2,-4.0,
1.2944199999999455,-1.6,0.5,0.2,,1.37
1.3042399999999361,-0.6,0.5,-0.3,,1.46
1.314049999999952,-0.6,0.5,-0.3,,1.46
1.3238599999999678,0.2,-0.7,-1.4,,1.0
1.3336799999999585,0.2,-0.7,-1.4,,1.0
1.3433999999999742,-0.5,0.1,-0.1,3.0,
1.3532199999999648,-0.5,0.1,-0.1,3.0,
1.3630299999999806,-0.2,0.5,-0.3,,1.82
1.3728399999999965,-0.2,0.5,-0.3,,1.82
1.3826599999999871,0.1,-1.2,0.0,,1.37
1.392470000000003,0.1,-1.2,0.0,,1.37
1.4022799999999052,0.1,-1.2,0.0,3.4,
1.4121000000000095,0.2,0.1,0.3,3.4,
1.4219099999999116,0.2,0.1,0.3,,2.01
1.4317199999999275,0.0,-0.3,-0.3,,1.0
1.441539999999918,0.0,-0.3,-0.3,5.0,
1.451349999999934,-0.3,-1.0,-1.2,,1.32
1.4611599999999498,-0.3,-1.0,-1.2,,1.32
1.4709799999999404,-0.3,-0.1,-0.3,-1.2,
1.480709999999931,-0.3,-0.1,-0.3,,1.73
1.4905199999999468,-0.2,1.0,-0.2,,0.82
1.5003299999999626,-0.2,1.0,-0.2,2.2,
1.5101499999999533,-0.2,-0.9,0.4,,1.37
1.5199599999999691,-0.2,-0.9,0.4,,1.37
1.529769999999985,-0.3,0.1,0.0,,1.37
1.5395899999999756,-0.3,0.1,0.0,,1.37
1.5493999999999915,-0.1,0.3,-0.8,-2.0,
1.5592100000000073,-0.1,0.3,-0.8,,1.18
1.569029999999998,-0.1,-0.6,-0.5,2.2,
1.5788400000000138,-0.1,-0.6,-0.5,,1.0
1.5885700000000043,-0.1,-0.6,-0.5,,1.0
1.5983799999999064,-0.5,-0.5,0.4,,1.0
1.6081899999999223,-0.5,-0.5,0.4,,1.0
1.618009999999913,0.2,0.4,-0.4,,1.18
1.6278199999999288,0.2,0.4,-0.4,,1.18
1.6376299999999446,-0.3,-0.5,-0.4,-2.0,
1.6474499999999352,-0.3,-0.5,-0.4,,1.18
1.657259999999951,-0.2,-0.2,-0.3,,1.18
1.667069999999967,-0.2,-0.2,-0.3,,1.18
1.6768899999999576,0.0,-0.5,-0.3,,2.28
1.6866999999999734,0.0,-0.5,-0.3,,2.28
1.6965099999999893,-1.0,-0.6,-0.5,3.6,
1.70632999999998,-1.0,-0.6,-0.5,3.6,
1.7160499999999956,-0.5,1.5,-0.3,,2.92
1.7258699999999862,-0.5,1.5,-0.3,,2.92
1.735680000000002,-0.2,-0.1,-0.6,,1.5
1.7454899999999043,-0.2,-0.1,-0.6,,1.5
1.7553100000000086,-0.3,-0.4,-0.7,,1.37
1.7651199999999108,-0.3,-0.4,-0.7,-3.6,
1.7749299999999266,0.2,-1.0,-0.4,,1.37
1.7847499999999172,0.2,-1.0,-0.4,,1.37
1.794559999999933,0.2,-1.0,-0.4,,2.1
1.804369999999949,0.1,-0.3,0.2,,2.1
1.8141899999999396,0.1,-0.3,0.2,,2.1
1.8239999999999554,-0.8,-0.9,0.0,,1.27
1.833729999999946,-0.8,-0.9,0.0,,1.27
1.8435399999999618,-0.7,0.1,0.2,,1.0
1.8533599999999524,-0.7,0.1,0.2,,1.0
1.8631699999999682,-0.3,0.0,0.4,,1.0
1.872979999999984,-0.3,0.0,0.4,,1.0
1.8827999999999747,-0.3,-0.8,-0.7,,1.0
1.8926099999999906,-0.3,-0.8,-0.7,,1.0
1.9024200000000064,0.0,1.0,0.1,-3.4,
1.912239999999997,0.0,1.0,0.1,,1.37
1.922050000000013,-0.7,-0.3,1.0,,1.18
1.931859999999915,-0.7,-0.3,1.0,3.6,
1.9416799999999057,0.2,0.0,-0.4,,1.37
1.9513999999999214,0.2,0.0,-0.4,,1.37
1.961219999999912,0.1,0.2,-0.2,,1.69
1.971029999999928,0.1,0.2,-0.2,,1.69
1.9808399999999438,0.1,0.2,-0.2,,1.37
1.9906599999999344,0.2,0.1,0.1,-4.0,
2.0004699999999502,0.2,0.1,0.1,,1.37
2.010279999999966,-0.3,1.5,0.0,,1.0
2.0200999999999567,-0.3,1.5,0.0,,1.0
2.0299099999999726,-0.5,0.1,-0.1,,1.59
2.0397199999999884,-0.5,0.1,-0.1,,1.59
2.049539999999979,0.3,-0.5,-0.2,,1.78
2.059349999999995,0.3,-0.5,-0.2,-3.4,
2.0690799999999854,0.3,-0.4,0.1,,1.18
2.0788900000000012,0.3,-0.4,0.1,,1.18
2.088709999999992,-0.2,0.1,0.0,,2.6
2.0985200000000077,-0.2,0.1,0.0,,2.6
2.10832999999991,0.3,-0.3,-0.2,,1.37
2.118150000000014,0.3,-0.3,-0.2,1.8,
2.1279599999999164,0.3,-0.4,-0.1,0.4,
2.1377699999999322,0.3,-0.4,-0.1,,2.28
2.147589999999923,0.3,-0.2,-1.1,,1.0
2.1573999999999387,0.3,-0.2,-1.1,,1.0
2.1672099999999546,1.0,0.1,-0.1,,2.6
2.177029999999945,1.0,0.1,-0.1,,2.6
2.186749999999961,1.0,0.1,-0.1,,1.18
2.1965699999999515,0.5,0.1,0.3,,1.18
2.2063799999999674,0.5,0.1,0.3,5.0,
2.2161899999999832,-0.3,0.4,-0.1,,1.32
2.226009999999974,-0.3,0.4,-0.1,,1.32
2.2358199999999897,-0.3,0.3,0.4,,1.59
2.2456300000000056,-0.3,0.3,0.4,,1.59
2.255449999999996,-0.2,0.6,-0.7,,1.27
2.265260000000012,-0.2,0.6,-0.7,,1.27
2.275069999999914,0.0,0.4,-0.3,,1.37
2.284889999999905,0.0,0.4,-0.3,,1.37
2.2946999999999207,-0.5,0.8,-0.4,,2.28
2.304429999999911,-0.5,0.8,-0.4,,2.28
2.314239999999927,0.6,-0.5,1.3,-2.0,
2.324049999999943,0.6,-0.5,1.3,,1.0
2.3338699999999335,0.4,0.2,-0.5,,1.37
2.3436799999999494,0.4,0.2,-0.5,5.0,
2.353489999999965,-0.5,0.6,-0.3,,1.37
2.363309999999956,-0.5,0.6,-0.3,,1.37
2.3731199999999717,-0.5,0.6,-0.3,-4.0,
2.3829299999999876,0.0,0.2,-0.4,,1.37
2.392749999999978,0.0,0.2,-0.4,,1.37
2.402559999999994,-0.3,0.5,0.2,-5.4,
2.41237000000001,-0.3,0.5,0.2,,1.78
2.4221900000000005,0.3,0.0,0.0,,2.6
2.4320000000000164,0.3,0.0,0.0,,2.6
2.441730000000007,0.1,-1.2,0.1,,2.28
2.451539999999909,0.1,-1.2,0.1,,2.28
2.4613600000000133,0.3,0.3,0.1,3.6,
2.4711699999999155,0.3,0.3,0.1,3.6,
2.4809799999999314,-0.7,0.3,-0.2,,1.91
2.490799999999922,-0.7,0.3,-0.2,,1.91
2.500609999999938,-0.3,-0.7,0.6,0.8,
2.5104199999999537,-0.3,-0.7,0.6,,1.18
2.5202399999999443,-1.5,-0.4,-0.2,,1.69
2.53004999999996,-1.5,-0.4,-0.2,-4.4,
2.5397799999999506,-0.6,-0.2,0.1,,1.32
2.5495899999999665,-0.6,-0.2,0.1,,1.32
2.5593999999999824,0.2,-0.2,-0.2,-6.6,
2.569219999999973,0.2,-0.2,-0.2,,2.42
2.579029999999989,0.2,-0.2,-0.2,0.8,
2.5888400000000047,0.1,-0.9,0.1,0.8,
2.5986599999999953,0.1,-0.9,0.1,,1.18
2.608470000000011,-0.2,0.5,-0.4,,0.91
2.6182799999999133,-0.2,0.5,-0.4,2.2,
2.6281000000000176,0.3,-1.2,-1.0,,1.37
2.63790999999992,0.3,-1.2,-1.0,,1.37
2.6477199999999357,-0.6,-0.8,-0.1,,1.78
2.6575399999999263,-0.6,-0.8,-0.1,,1.78
2.667349999999942,0.2,0.6,-0.2,,2.28
2.6770799999999326,0.2,0.6,-0.2,,2.28
2.6868899999999485,-0.6,-0.6,0.0,,1.14
2.696709999999939,-0.6,-0.6,0.0,,1.14
2.706519999999955,-0.1,-1.0,-0.2,,1.73
2.716329999999971,-0.1,-1.0,-0.2,,1.73
2.7261499999999614,0.2,0.2,0.3,-2.0,
2.7359599999999773,0.2,0.2,0.3,,1.59
2.745769999999993,-1.6,-0.5,1.5,2.2,
2.7555899999999838,-1.6,-0.5,1.5,2.2,
2.7653999999999996,-1.6,-0.5,1.5,,2.28
2.7752100000000155,0.3,-0.5,-0.4,,2.28
2.784940000000006,0.3,-0.5,-0.4,,2.28
2.794749999999908,-0.2,0.0,-0.4,,2.28
2.8045700000000124,-0.2,0.0,-0.4,,2.28
2.8143799999999146,-0.5,-0.6,-0.4,,1.0
2.8241899999999305,-0.5,-0.6,-0.4,-4.0,
2.834009999999921,0.0,1.1,-0.2,,1.32
2.843819999999937,0.0,1.1,-0.2,,1.32
2.853629999999953,0.2,-0.4,-0.8,,1.37
2.8634499999999434,0.2,-0.4,-0.8,,1.37
2.8732599999999593,-0.7,-1.1,0.1,,2.28
2.883069999999975,-0.7,-1.1,0.1,0.4,
2.8928899999999658,0.1,1.2,-0.2,,1.05
2.9026099999999815,0.1,1.2,-0.2,,1.05
2.912429999999972,-0.2,-0.1,1.2,,2.28
2.922239999999988,-0.2,-0.1,1.2,,2.28
2.932050000000004,0.3,-0.1,-0.2,,2.1
2.9418699999999944,0.3,-0.1,-0.2,-6.6,
2.9516800000000103,-0.1,0.7,0.1,,1.69
2.9614899999999125,-0.1,0.7,0.1,,1.69
2.9713100000000168,-0.1,0.7,0.1,,1.46
2.981119999999919,0.7,0.3,1.5,,1.46
2.990929999999935,0.7,0.3,1.5,,1.46
3.0007499999999254,-0.6,0.2,0.0,,2.1
3.010479999999916,-0.6,0.2,0.0,,2.1
3.0202899999999318,-0.5,0.7,-0.6,,1.05
3.0300999999999476,-0.5,0.7,-0.6,,1.05
3.0399199999999382,0.0,0.4,1.3,,1.69
3.049729999999954,0.0,0.4,1.3,,1.69
3.05953999999997,-0.1,-0.5,-0.3,,1.0
3.0693599999999606,-0.1,-0.5,-0.3,,1.0
3.0791699999999764,-0.5,0.0,-0.3,-3.8,
3.0889799999999923,-0.5,0.0,-0.3,,2.1
3.098799999999983,0.2,-0.2,-0.1,,1.64
3.1086099999999988,0.2,-0.2,-0.1,,1.64
3.1184200000000146,0.4,0.1,-0.1,,1.32
3.128150000000005,0.4,0.1,-0.1,,1.32
3.1379599999999073,-0.4,0.8,-0.7,,1.96
3.1477800000000116,-0.4,0.8,-0.7,,1.96
3.1575899999999137,-0.4,0.8,-0.7,,1.18
3.1673999999999296,0.0,-0.1,0.1,,1.18
3.17721999999992,0.0,-0.1,0.1,,1.18
3.187029999999936,0.8,-1.6,-0.4,,0.73
3.196839999999952,0.8,-1.6,-0.4,,0.73
3.2066599999999426,-0.3,-0.2,0.1,,1.96
3.2164699999999584,-0.3,-0.2,0.1,,1.96
3.226199999999949,-0.6,0.1,-0.1,,1.73
3.236099999999965,-0.6,0.1,-0.1,-5.2,
3.2458299999999554,0.4,0.5,-0.6,,2.1
3.2556399999999712,0.4,0.5,-0.6,,2.1
3.265449999999987,-0.3,0.3,-1.4,,1.32
3.2752699999999777,-0.3,0.3,-1.4,,1.32
3.2850799999999936,0.2,-0.2,-0.1,,1.05
3.2948900000000094,0.2,-0.2,-0.1,2.2,
3.30471,0.3,1.5,0.0,,1.18
3.314520000000016,0.3,1.5,0.0,,1.18
3.324329999999918,-0.1,-0.2,0.3,,0.68
3.3341499999999087,-0.1,-0.2,0.3,,0.68
3.3439599999999245,-0.1,-0.2,0.3,,1.37
3.353689999999915,-0.4,0.3,-0.4,,1.37
3.363499999999931,-0.4,0.3,-0.4,,1.59
3.3733099999999467,0.4,0.2,0.0,,1.59
3.3831299999999374,0.4,0.2,0.0,-4.4,
3.392939999999953,-0.6,1.2,-0.5,,1.0
3.402749999999969,-0.6,1.2,-0.5,,1.0
3.4125699999999597,-0.2,0.1,-0.2,,1.73
3.4223799999999756,-0.2,0.1,-0.2,,1.73
3.4321899999999914,0.4,0.2,0.0,,1.32
3.442009999999982,0.4,0.2,0.0,,1.32
3.451819999999998,0.1,0.1,1.5,,1.37
3.4616300000000138,0.1,0.1,1.5,,1.37
3.4714500000000044,0.1,0.1,0.5,,1.37
3.4811699999999064,0.1,0.1,0.5,,1.37
3.4909900000000107,0.2,0.5,-0.1,5.0,
3.500799999999913,0.2,0.5,-0.1,,1.0
3.5106099999999287,0.6,0.1,0.3,,1.78
3.5204299999999193,0.6,0.1,0.3,,1.78
3.530239999999935,0.2,0.6,-0.1,,1.0
3.540049999999951,0.2,0.6,-0.1,,1.0
3.5498699999999417,0.2,0.6,-0.1,-5.2,
3.5596799999999575,-0.6,-0.4,-0.7,,1.96
3.5694899999999734,-0.6,-0.4,-0.7,,1.96
3.579309999999964,-0.9,0.3,-0.4,,1.73
3.5890399999999545,-0.9,0.3,-0.4,,1.73
3.5988499999999704,0.1,-0.1,-0.1,,1.18
3.608659999999986,0.1,-0.1,-0.1,,1.18
3.618479999999977,0.4,0.5,0.0,,1.18
3.6282899999999927,0.4,0.5,0.0,,1.18
3.6381000000000085,-0.4,0.2,-0.3,,2.28
3.647919999999999,-0.4,0.2,-0.3,0.4,
3.657730000000015,0.1,1.5,0.0,,2.6
3.667539999999917,0.1,1.5,0.0,,2.6
3.677359999999908,0.9,-0.2,1.4,3.6,
3.6871699999999237,0.9,-0.2,1.4,,1.0
3.6969799999999395,-0.9,-0.2,0.6,,1.18
3.70679999999993,-0.9,-0.2,0.6,-2.0,
3.716609999999946,0.1,0.2,-0.4,,0.68
3.7263399999999365,0.1,0.2,-0.4,,0.68
3.7361499999999523,0.7,0.3,-1.6,-2.0,
3.745959999999968,0.7,0.3,-1.6,,1.0
3.755779999999959,0.7,0.3,-1.6,,1.0
3.7655899999999747,0.3,0.4,-0.3,-4.4,
3.7753999999999905,0.3,0.4,-0.3,-4.4,
3.785219999999981,0.0,1.0,0.3,,1.18
3.795029999999997,0.0,1.0,0.3,-0.6,
3.804840000000013,-0.4,0.3,0.1,,1.78
3.8146600000000035,-0.4,0.3,0.1,,1.78
3.8244699999999057,0.3,0.5,0.0,,1.05
3.8342799999999215,0.3,0.5,0.0,1.4,
3.844009999999912,0.3,-0.1,-0.1,,1.96
3.8538300000000163,0.3,-0.1,-0.1,-6.6,
3.8636399999999185,0.5,0.6,0.3,,1.78
3.8734499999999343,0.5,0.6,0.3,,1.78
3.883269999999925,-0.2,-1.2,0.3,,1.37
3.893079999999941,-0.2,-1.2,0.3,2.2,
3.9028899999999567,0.6,1.1,-1.4,-2.4,
3.9127099999999473,0.6,1.1,-1.4,,2.28
3.922519999999963,0.2,0.0,-0.5,3.0,
3.932329999999979,0.2,0.0,-0.5,,1.96
3.9421499999999696,0.2,0.0,-0.5,,1.27
3.9519599999999855,0.7,-1.2,0.6,,1.27
3.9617700000000013,0.7,-1.2,0.6,,1.27
3.971499999999992,0.7,0.4,1.5,,2.28
3.9813100000000077,0.7,0.4,1.5,-6.6,
3.9911299999999983,-0.1,0.1,0.4,,1.96
4.000940000000014,-0.1,0.1,0.4,,1.96
4.010749999999916,-0.3,-0.1,-0.1,,1.0
4.020569999999907,-0.3,-0.1,-0.1,,1.0
4.030379999999923,1.1,0.0,0.5,,2.28
4.040189999999939,1.1,0.0,0.5,,2.28
4.050009999999929,0.1,1.0,-0.4,,1.5
4.059819999999945,0.1,1.0,-0.4,,1.5
4.069549999999936,0.3,-0.7,0.0,,2.28
4.0793599999999515,0.3,-0.7,0.0,,2.28
4.089169999999967,-0.7,-0.2,0.5,-4.4,
4.098989999999958,-0.7,-0.2,0.5,,1.69
4.108799999999974,-0.2,1.0,-0.1,-2.0,
4.11860999999999,-0.2,1.0,-0.1,-2.0,
4.12842999999998,-0.2,1.0,-0.1,,1.27
4.138239999999996,-1.3,-0.3,-0.2,,1.27
4.148050000000012,-1.3,-0.3,-0.2,,2.28
4.157870000000003,0.1,0.8,0.1,,2.28
4.167679999999905,0.1,0.8,0.1,,2.28
4.177489999999921,0.9,-1.5,0.0,-1.0,
4.187219999999911,0.9,-1.5,0.0,,2.28
4.197040000000015,0.6,-0.2,-1.5,,2.42
4.206849999999918,0.6,-0.2,-1.5,-5.2,
4.2166599999999335,-0.6,0.6,-0.3,,1.78
4.226479999999924,-0.6,0.6,-0.3,,1.78
4.23628999999994,-0.3,-0.3,-0.1,,1.46
4.246099999999956,-0.3,-0.3,-0.1,1.6,
4.255919999999946,-0.7,-0.2,0.2,,1.27
4.265729999999962,-0.7,-0.2,0.2,,1.27
4.275539999999978,-0.4,0.6,-0.3,,1.46
4.285359999999969,-0.4,0.6,-0.3,,1.46
4.2950799999999845,-0.1,0.4,-0.1,,1.05
4.304899999999975,-0.1,0.4,-0.1,-3.4,
4.314709999999991,0.4,-1.2,0.4,,1.18
4.324520000000007,0.4,-1.2,0.4,,1.18
4.334339999999997,0.4,-1.2,0.4,,1.0
4.344150000000013,-0.2,0.0,-0.7,,1.0
4.3539599999999155,-0.2,0.0,-0.7,,1.0
4.363779999999906,0.5,-0.1,-0.2,,1.18
4.373589999999922,0.5,-0.1,-0.2,,1.18
4.383399999999938,-1.2,-1.1,0.8,,2.28
4.393219999999928,-1.2,-1.1,0.8,,2.28
4.403029999999944,-0.7,-0.6,-0.8,,2.28
4.41283999999996,-0.7,-0.6,-0.8,,2.28
4.422659999999951,0.4,-0.1,-0.8,,1.37
4.432389999999941,0.4,-0.1,-0.8,,1.37
4.442199999999957,-0.4,-1.1,-0.1,2.8,
4.452009999999973,-0.4,-1.1,-0.1,,1.18
4.4618299999999635,0.2,1.0,-0.2,,0.04
4.471639999999979,0.2,1.0,-0.2,3.6,
4.481449999999995,-0.1,0.4,0.2,,1.46
4.491269999999986,-0.1,0.4,0.2,,1.46
4.501080000000002,-1.1,-0.8,-0.1,,1.0
4.510890000000018,-1.1,-0.8,-0.1,,1.0
4.520710000000008,-1.1,-0.8,-0.1,,1.05
4.53051999999991,-0.6,-0.3,-0.4,2.2,
4.540329999999926,-0.6,-0.3,-0.4,,1.05
4.550059999999917,0.5,-0.5,-0.4,,1.27
4.559869999999933,0.5,-0.5,-0.4,,1.27
4.569689999999923,-0.3,-0.2,-0.2,,1.69
4.579499999999939,-0.3,-0.2,-0.2,,1.69
4.589309999999955,0.1,1.1,-0.4,,2.01
4.5991299999999455,0.1,1.1,-0.4,-3.4,
4.608939999999961,-0.1,-0.3,-0.2,,2.28
4.618749999999977,-0.1,-0.3,-0.2,,2.28
4.628569999999968,-0.2,-0.3,-0.4,,1.46
4.638379999999984,-0.2,-0.3,-0.4,,1.46
4.64819,-0.7,1.1,0.1,,1.0
4.65800999999999,-0.7,1.1,0.1,0.8,
4.667820000000006,-0.2,-0.2,1.5,3.6,
4.6775499999999965,-0.2,-0.2,1.5,,1.37
4.687360000000012,-0.2,-0.4,-0.1,,2.28
4.697169999999915,-0.2,-0.4,-0.1,,2.28
4.706989999999905,-0.2,1.2,0.4,,1.37
4.716799999999921,-0.2,1.2,0.4,,1.37
4.726609999999937,-0.2,1.2,0.4,-6.6,
4.7364299999999275,1.4,0.1,-0.3,-6.6,
4.746239999999943,1.4,0.1,-0.3,,2.28
4.756049999999959,-0.6,-0.2,-0.1,,1.0
4.76586999999995,-0.6,-0.2,-0.1,,1.0
4.775679999999966,0.2,-0.1,-0.7,,1.37
4.785489999999982,0.2,-0.1,-0.7,,1.37
4.795309999999972,0.0,0.7,-0.4,-0.6,
4.805039999999963,0.0,0.7,-0.4,,1.37
4.8148499999999785,0.2,0.0,-0.1,,1.27
4.824659999999994,0.2,0.0,-0.1,3.6,
4.834479999999985,0.1,0.4,0.0,,1.41
4.844290000000001,0.1,0.4,0.0,,1.41
4.854100000000017,0.6,-0.5,0.7,-3.8,
4.863920000000007,0.6,-0.5,0.7,,2.28
4.8737299999999095,1.0,-1.0,-0.2,,1.18
4.883539999999925,1.0,-1.0,-0.2,3.6,
4.893359999999916,0.9,0.2,0.5,-1.0,
4.903169999999932,0.9,0.2,0.5,,2.28
4.912979999999948,0.9,0.2,0.5,3.2,
4.922709999999938,0.5,0.1,0.3,,1.55
4.932519999999954,0.5,0.1,0.3,,1.55
4.942339999999945,0.7,-0.1,-0.2,,1.18
4.9521499999999605,0.7,-0.1,-0.2,-2.0,
4.961959999999976,-0.8,0.2,0.4,,1.18
4.971779999999967,-0.8,0.2,0.4,,1.18
4.981589999999983,0.4,0.0,-0.3,,1.41
4.991399999999999,0.4,0.0,-0.3,,1.41
5.001219999999989,0.1,0.2,0.2,,1.05
5.011030000000005,0.1,0.2,0.2,,1.05
5.020839999999907,-0.3,0.4,0.0,0.4,
5.030660000000012,-0.3,0.4,0.0,,2.28
5.040469999999914,0.6,0.0,-0.6,,1.18
5.050199999999904,0.6,0.0,-0.6,,1.18
5.06000999999992,-1.0,0.2,0.4,,1.0
5.069829999999911,-1.0,0.2,0.4,,1.0
5.079639999999927,-0.4,-0.4,0.1,-3.4,
5.0894499999999425,-0.4,-0.4,0.1,,1.37
5.099269999999933,0.0,0.3,0.5,,1.0
5.109079999999949,0.0,0.3,0.5,,1.0
5.118889999999965,0.0,0.3,0.5,,2.28
5.1287099999999555,-0.3,0.2,0.1,,2.28
5.138519999999971,-0.3,0.2,0.1,,2.28
5.148329999999987,0.6,0.3,0.5,3.6,
5.158149999999978,0.6,0.3,0.5,,1.0
5.1678699999999935,0.1,1.1,-0.4,,1.91
5.177689999999984,0.1,1.1,-0.4,1.2,
5.1875,-0.4,0.1,-0.1,,2.28
5.197310000000016,-0.4,0.1,-0.1,,2.28
5.2071300000000065,-0.5,0.1,-0.1,-2.4,
5.216939999999909,-0.5,0.1,-0.1,,2.28
5.2267499999999245,0.1,0.4,-0.2,,1.37
5.236569999999915,0.1,0.4,-0.2,1.6,
5.246379999999931,0.2,-0.1,0.3,,2.28
5.256189999999947,0.2,-0.1,0.3,,2.28
5.2660099999999375,0.0,-0.2,-1.6,,1.69
5.275819999999953,0.0,-0.2,-1.6,,1.69
5.285629999999969,0.0,0.1,-0.2,,1.0
5.29544999999996,0.0,0.1,-0.2,,1.0
5.3051699999999755,0.0,0.1,-0.2,,1.41
5.314989999999966,-0.7,-0.6,0.2,,1.41
5.324799999999982,-0.7,-0.6,0.2,,1.41
5.334609999999998,0.4,-0.5,1.1,,1.78
5.3444299999999885,0.4,-0.5,1.1,,1.78
5.354240000000004,0.0,0.5,-0.3,,1.5
5.3640499999999065,0.0,0.5,-0.3,-2.0,
5.373870000000011,0.6,-0.5,-0.2,-4.4,
5.383679999999913,0.6,-0.5,-0.2,,1.59
5.393489999999929,0.0,-0.4,-0.4,,1.78
5.4033099999999195,0.0,-0.4,-0.4,,1.78
5.413119999999935,0.0,-1.3,-0.6,,1.37
5.422849999999926,0.0,-1.3,-0.6,,1.37
5.432659999999942,0.2,-0.4,-1.1,,1.73
5.442479999999932,0.2,-0.4,-1.1,,1.73
5.452289999999948,-0.6,-0.5,-0.5,,1.0
5.462099999999964,-0.6,-0.5,-0.5,,1.0
5.471919999999955,0.2,0.7,-0.1,,1.78
5.4817299999999705,0.2,0.7,-0.1,,1.78
5.491539999999986,-0.5,-0.6,-0.3,,1.69
5.501359999999977,-0.5,-0.6,-0.3,-1.2,
5.511169999999993,-0.5,-0.6,-0.3,,1.18
5.520980000000009,0.4,-1.4,-0.5,,1.18
5.530709999999999,0.4,-1.4,-0.5,5.0,
5.540520000000015,-0.3,-0.1,-0.3,,1.69
5.550340000000006,-0.3,-0.1,-0.3,,1.69
5.560149999999908,0.6,-0.5,0.0,3.6,
5.569959999999924,0.6,-0.5,0.0,,1.18
5.579779999999914,-0.2,-0.8,0.2,,1.0
5.58958999999993,-0.2,-0.8,0.2,0.8,
5.599399999999946,0.0,-0.1,-0.5,,2.28
5.609219999999937,0.0,-0.1,-0.5,,2.28
5.6190299999999525,-0.3,-0.6,-0.5,,1.18
5.628839999999968,-0.3,-0.6,-0.5,,1.18
5.638659999999959,-0.3,-0.5,-0.1,,2.28
5.648469999999975,-0.3,-0.5,-0.1,,2.28
5.658199999999965,-0.1,0.0,1.4,,1.37
5.668009999999981,-0.1,0.0,1.4,,1.37
5.677829999999972,-0.2,-1.1,0.0,,1.96
5.687639999999988,-0.2,-1.1,0.0,,1.96
5.6974500000000035,-0.2,-1.1,0.0,,1.37
5.707269999999994,-0.7,1.1,-0.1,,1.37
5.71708000000001,-0.7,1.1,-0.1,2.2,
5.726889999999912,1.5,0.1,0.0,3.6,
5.736710000000016,1.5,0.1,0.0,,1.59
5.746519999999919,-0.4,1.0,0.1,,2.28
5.756329999999934,-0.4,1.0,0.1,,2.28
5.766149999999925,-0.5,0.4,-0.2,,1.73
5.775869999999941,-0.5,0.4,-0.2,,1.73
5.785689999999931,0.2,-0.2,-0.4,,1.18
5.795499999999947,0.2,-0.2,-0.4,,1.18
5.805309999999963,0.2,0.1,0.0,,1.18
5.815129999999954,0.2,0.1,0.0,,1.18
5.82493999999997,-0.6,1.0,0.0,,1.18
5.8347499999999854,-0.6,1.0,0.0,,1.18
5.844569999999976,0.4,-0.1,-0.6,,1.37
5.854379999999992,0.4,-0.1,-0.6,-2.0,
5.864190000000008,0.8,-0.1,0.1,,1.91
5.874009999999998,0.8,-0.1,0.1,,1.91
5.883820000000014,-0.6,-0.1,-0.3,,1.59
5.893629999999916,-0.6,-0.1,-0.3,,1.59
5.903359999999907,-0.6,-0.1,-0.3,-4.6,
5.913169999999923,0.9,-0.4,0.5,-4.6,
5.922989999999913,0.9,-0.4,0.5,,1.64
5.932799999999929,0.8,-0.1,1.5,,2.28
5.942609999999945,0.8,-0.1,1.5,0.4,
5.952429999999936,0.2,0.0,0.4,,1.37
5.962239999999952,0.2,0.0,0.4,,1.37
5.972049999999967,0.0,0.2,0.3,-0.2,
5.981869999999958,0.0,0.2,0.3,,2.05
5.991679999999974,0.6,-0.3,0.5,,1.23
6.00148999999999,0.6,-0.3,0.5,5.0,
6.01130999999998,0.7,0.3,-0.9,,2.6
6.021039999999971,0.7,0.3,-0.9,,2.6
6.030849999999987,-1.4,-0.1,0.4,,1.32
6.040660000000003,-1.4,-0.1,0.4,,1.32
6.050479999999993,0.1,-1.5,0.9,,1.73
6.060290000000009,0.1,-1.5,0.9,,1.73
6.070099999999911,0.9,1.0,-1.3,-2.0,
6.0799200000000155,0.9,1.0,-1.3,,1.73
6.089729999999918,0.9,1.0,-1.3,,1.0
6.099539999999934,-0.7,-0.1,0.2,,1.0
6.109359999999924,-0.7,-0.1,0.2,,1.0
6.11916999999994,0.3,-1.0,0.3,,2.28
6.128979999999956,0.3,-1.0,0.3,0.4,
6.1387999999999465,1.4,0.5,0.0,,1.0
6.148519999999962,1.4,0.5,0.0,,1.0
6.158339999999953,0.5,-1.4,-0.4,,1.37
6.168149999999969,0.5,-1.4,-0.4,,1.37
6.177959999999985,-0.2,-0.7,-1.3,,2.28
6.187779999999975,-0.2,-0.7,-1.3,,2.28
6.197589999999991,0.1,0.6,0.2,,1.73
6.207400000000007,0.1,0.6,0.2,,1.73
6.2172199999999975,0.2,-0.3,0.0,,1.69
6.227030000000013,0.2,-0.3,0.0,,1.69
6.236839999999916,-1.3,-0.4,0.4,,2.28
6.246659999999906,-1.3,-0.4,0.4,,2.28
6.25639000000001,-0.4,0.5,-0.1,0.4,
6.2661999999999125,-0.4,0.5,-0.1,0.4,
6.276009999999928,0.5,0.0,0.0,,1.0
6.285829999999919,0.5,0.0,0.0,,1.0
6.295639999999935,0.5,0.0,0.0,,2.28
6.305449999999951,-0.6,-0.7,-0.3,,2.28
6.315269999999941,-0.6,-0.7,-0.3,,2.28
6.325079999999957,0.3,0.3,0.1,-3.8,
6.334889999999973,0.3,0.3,0.1,,2.1
6.344709999999964,0.3,-0.5,-1.4,,1.18
6.3545199999999795,0.3,-0.5,-1.4,3.6,
6.364329999999995,-0.2,1.2,0.2,,1.37
6.374149999999986,-0.2,1.2,0.2,,1.37
6.383870000000002,-0.1,-0.4,1.3,0.2,
6.393689999999992,-0.1,-0.4,1.3,,1.91
6.403500000000008,0.1,0.2,0.7,,1.59
6.41330999999991,0.1,0.2,0.7,-2.0,
6.423130000000015,-1.0,0.8,0.3,,1.0
6.432939999999917,-1.0,0.8,0.3,,1.0
6.442749999999933,-0.5,-0.5,0.3,,1.69
6.452569999999923,-0.5,-0.5,0.3,3.6,
6.462379999999939,0.2,-0.2,0.2,,0.54
6.472189999999955,0.2,-0.2,0.2,,0.54
6.482009999999946,0.2,-0.2,0.2,,1.32
6.4918199999999615,-0.7,0.8,0.0,,1.32
6.501549999999952,-0.7,0.8,0.0,,1.32
6.511359999999968,-0.6,0.0,0.1,2.2,
6.521169999999984,-0.6,0.0,0.1,,1.37
6.530989999999974,1.4,-1.6,-0.3,,2.28
6.54079999999999,1.4,-1.6,-0.3,-6.6,
6.550610000000006,-0.3,0.2,1.2,,2.19
6.560429999999997,-0.3,0.2,1.2,,2.19
6.5702400000000125,-0.8,0.1,0.0,,1.37
6.580049999999915,-0.8,0.1,0.0,,1.37
6.589869999999905,0.6,0.1,-0.3,,1.46
6.599679999999921,0.6,0.1,-0.3,,1.46
6.609409999999912,-0.2,-0.1,0.1,,1.41
6.6192199999999275,-0.2,-0.1,0.1,,1.41
6.629039999999918,0.4,0.2,0.2,,1.32
6.638849999999934,0.4,0.2,0.2,,1.32
6.64865999999995,0.6,1.0,0.2,,2.1
6.6584799999999404,0.6,1.0,0.2,,2.1
6.668289999999956,1.0,0.2,0.1,,1.27
6.678099999999972,1.0,0.2,0.1,-2.0,
6.687919999999963,1.0,0.2,0.1,,1.27
6.697729999999979,-1.0,0.3,0.0,,1.37
6.7075399999999945,-1.0,0.3,0.0,,1.37
6.717359999999985,-0.2,-0.2,0.3,,1.0
6.727170000000001,-0.2,-0.2,0.3,,1.0
6.7368999999999915,0.1,0.0,-0.3,5.0,
6.746710000000007,0.1,0.0,-0.3,,1.37
6.7565199999999095,0.2,0.4,0.1,,1.18
6.766340000000014,0.2,0.4,0.1,5.0,
6.776149999999916,0.2,0.1,0.0,,1.5
6.785959999999932,0.2,0.1,0.0,,1.5
6.795779999999922,-0.2,-0.8,0.2,-2.4,
6.805589999999938,-0.2,-0.8,0.2,-2.4,
6.815399999999954,-1.4,-0.3,0.4,,1.69
6.825219999999945,-1.4,-0.3,0.4,-0.6,
6.835029999999961,0.7,-1.5,0.1,,1.64
6.8448399999999765,0.7,-1.5,0.1,,1.64
6.854569999999967,-0.2,-0.1,-1.0,,1.18
6.864389999999958,-0.2,-0.1,-1.0,5.0,
6.874199999999973,-0.2,-0.1,-1.0,,1.0
6.884009999999989,0.4,0.3,-0.1,,1.0
6.89382999999998,0.4,0.3,-0.1,3.6,
6.903639999999996,0.1,-0.5,-0.2,,1.64
6.913450000000012,0.1,-0.5,-0.2,,1.64
6.923270000000002,-0.7,-0.7,-0.7,,1.73
6.933079999999904,-0.7,-0.7,-0.7,,1.73
6.94288999999992,-0.3,0.5,-0.2,,1.37
6.952619999999911,-0.3,0.5,-0.2,-1.2,
6.962429999999927,-1.4,-0.6,0.1,,2.42
6.972249999999917,-1.4,-0.6,0.1,,2.42
6.982059999999933,0.1,0.6,0.2,,1.78
6.991869999999949,0.1,0.6,0.2,,1.78
7.00168999999994,-0.2,0.4,0.6,-0.6,
7.011499999999955,-0.2,0.4,0.6,,1.0
7.021309999999971,0.4,0.0,-0.3,,1.0
7.031129999999962,0.4,0.0,-0.3,,1.0
7.040939999999978,-0.7,-0.3,-0.3,,2.28
7.050749999999994,-0.7,-0.3,-0.3,,2.28
7.060569999999984,1.5,-0.4,0.1,,1.27
7.07029,1.5,-0.4,0.1,,1.27
7.080109999999991,1.5,-0.4,0.1,,1.27
7.089920000000006,-0.4,-0.2,0.2,1.4,
7.099729999999909,-0.4,-0.2,0.2,,1.37
7.109550000000013,-0.6,0.0,-0.1,,1.37
7.119359999999915,-0.6,0.0,-0.1,-2.0,
7.129169999999931,1.4,0.1,0.0,,1.0
7.138989999999922,1.4,0.1,0.0,,1.0
7.148799999999937,0.7,-1.3,-0.8,3.0,
7.158609999999953,0.7,-1.3,-0.8,3.0,
7.168429999999944,-1.4,0.2,1.4,,2.6
7.17823999999996,-1.4,0.2,1.4,0.4,
7.18796999999995,1.1,-1.3,0.1,,1.73
7.197869999999966,1.1,-1.3,0.1,,1.73
7.207599999999957,0.5,0.1,-0.3,,2.6
7.217409999999973,0.5,0.1,-0.3,0.4,
7.227219999999988,-0.2,-0.2,0.2,,1.0
7.237039999999979,-0.2,-0.2,0.2,,1.0
7.246849999999995,-0.8,-0.2,0.3,-3.2,
7.256660000000011,-0.8,-0.2,0.3,,1.64
7.266480000000001,-0.8,-0.2,0.3,,1.37
7.276290000000017,0.8,0.1,0.1,,1.37
7.286099999999919,0.8,0.1,0.1,,1.37
7.29591999999991,1.2,0.2,0.4,,1.37
7.305729999999926,1.2,0.2,0.4,-2.0,
7.315459999999916,0.4,0.4,-0.3,,1.32
7.325269999999932,0.4,0.4,-0.3,,1.32
7.335079999999948,0.8,-0.5,0.2,,1.37
7.344899999999939,0.8,-0.5,0.2,,1.37
7.354709999999955,0.4,-0.1,-0.3,,1.5
7.36451999999997,0.4,-0.1,-0.3,,1.5
7.374339999999961,0.4,0.5,0.1,,1.18
7.384149999999977,0.4,0.5,0.1,,1.18
7.393959999999993,0.8,0.0,-0.1,,1.05
7.403779999999983,0.8,0.0,-0.1,,1.05
7.413589999999999,0.2,0.8,0.1,-2.0,
7.423400000000015,0.2,0.8,0.1,,1.37
7.433130000000006,-0.4,0.2,0.3,-6.6,
7.442949999999996,-0.4,0.2,0.3,-6.6,
7.452760000000012,-0.4,0.2,0.3,,1.37
7.462569999999914,0.1,0.3,-0.4,,1.37
7.472389999999905,0.1,0.3,-0.4,,1.73
7.482199999999921,0.4,0.4,-0.6,,1.73
7.4920099999999366,0.4,0.4,-0.6,,1.73
7.501829999999927,0.7,1.0,0.0,-0.6,
7.511639999999943,0.7,1.0,0.0,,1.09
7.521449999999959,0.2,-0.7,0.4,,1.05
7.5312699999999495,0.2,-0.7,0.4,,1.05
7.541079999999965,-0.2,0.2,0.0,,1.5
7.550809999999956,-0.2,0.2,0.0,,1.5
7.560619999999972,-0.3,0.6,-0.1,,1.37
7.570429999999988,-0.3,0.6,-0.1,-4.0,
7.580249999999978,0.4,-1.1,0.2,,0.68
7.590059999999994,0.4,-1.1,0.2,,0.68
7.59987000000001,0.3,0.4,0.6,,0.68
7.6096900000000005,0.3,0.4,0.6,,0.68
7.619500000000016,-0.8,1.0,0.2,,2.28
7.6293099999999185,-0.8,1.0,0.2,-6.6,
7.639129999999909,0.1,-0.9,1.0,,1.59
7.648939999999925,0.1,-0.9,1.0,,1.59
7.658749999999941,0.1,-0.9,1.0,,1.91
7.668479999999931,-1.2,-0.8,-0.7,,1.91
7.678289999999947,-1.2,-0.8,-0.7,,1.91
7.688109999999938,0.4,0.6,-0.4,,1.05
7.697919999999954,0.4,0.6,-0.4,,1.05
7.7077299999999696,-0.4,-0.9,0.0,,1.37
7.71754999999996,-0.4,-0.9,0.0,,1.37
7.727359999999976,-0.2,-0.9,-0.2,,1.69
7.737169999999992,-0.2,-0.9,-0.2,,1.69
7.7469899999999825,-0.2,-0.6,-0.3,,1.37
7.756799999999998,-0.2,-0.6,-0.3,,1.37
7.766610000000014,0.9,-1.1,0.8,0.8,
7.776340000000005,0.9,-1.1,0.8,,1.82
7.786159999999995,-0.5,-1.1,0.5,,2.28
7.795970000000011,-0.5,-1.1,0.5,0.4,
7.805779999999913,-0.2,0.2,0.1,,0.36
7.815600000000018,-0.2,0.2,0.1,,0.36
7.82540999999992,-1.3,-1.0,0.1,,1.18
7.835219999999936,-1.3,-1.0,0.1,,1.18
7.845039999999926,-1.3,-1.0,0.1,,1.0
7.854849999999942,-0.5,-0.6,0.1,-2.0,
7.864659999999958,-0.5,-0.6,0.1,,1.0
7.874479999999949,-0.3,0.0,0.0,,1.32
7.8842899999999645,-0.3,0.0,0.0,,1.32
7.89409999999998,-1.0,-0.4,-0.2,,2.28
7.903829999999971,-1.0,-0.4,-0.2,,2.28
7.913639999999987,-0.5,1.0,-0.5,,1.37
7.923459999999977,-0.5,1.0,-0.5,-4.0,
7.933269999999993,-0.3,0.1,1.0,,1.18
7.943080000000009,-0.3,0.1,1.0,,1.18
7.9529,-0.4,-0.7,0.0,,1.32
7.9627100000000155,-0.4,-0.7,0.0,,1.32
7.972519999999918,-0.4,0.2,-0.2,,1.37
7.982339999999908,-0.4,0.2,-0.2,-2.0,
7.992149999999924,0.2,-0.3,-0.4,5.0,
8.00195999999994,0.2,-0.3,-0.4,,1.37
8.01168999999993,0.3,-1.2,-0.3,,2.28
8.021509999999921,0.3,-1.2,-0.3,,2.28
8.031319999999937,-0.8,-0.2,-1.3,,1.37
8.041129999999953,-0.8,-0.2,-1.3,,1.37
8.050949999999943,-0.8,-0.2,-1.3,,1.73
8.06075999999996,0.2,0.1,0.3,,1.73
8.070569999999975,0.2,0.1,0.3,,1.73
8.080389999999966,0.2,-1.3,0.5,,1.69
8.090199999999982,0.2,-1.3,0.5,,1.69
8.100009999999997,-0.4,0.0,1.3,,2.28
8.109829999999988,-0.4,0.0,1.3,,2.28
8.119640000000004,0.8,0.1,-0.5,-0.6,
8.129449999999906,0.8,0.1,-0.5,,2.33
8.13918000000001,-0.2,-0.2,-0.3,,1.18
8.148989999999912,-0.2,-0.2,-0.3,,1.18
8.158810000000017,-0.3,0.5,1.2,,1.91
8.168619999999919,-0.3,0.5,1.2,,1.91
8.178429999999935,0.7,0.5,-0.2,-3.8,
8.188249999999925,0.7,0.5,-0.2,,1.37
8.198059999999941,0.2,0.2,-0.2,,2.28
8.207869999999957,0.2,0.2,-0.2,-3.8,
8.217689999999948,-1.3,0.0,0.3,,1.0
8.227499999999964,-1.3,0.0,0.3,,1.0
8.23730999999998,-1.3,0.0,0.3,1.2,
8.24703999999997,0.2,-1.5,0.2,,1.59
8.256849999999986,0.2,-1.5,0.2,,1.59
8.266669999999976,0.6,-0.2,0.1,0.4,
8.276479999999992,0.6,-0.2,0.1,0.4,
8.286290000000008,0.4,0.9,-0.2,,1.96
8.296109999999999,0.4,0.9,-0.2,,1.96
8.305920000000015,-0.2,-0.1,-0.2,,2.6
8.315729999999917,-0.2,-0.1,-0.2,,2.6
8.325549999999907,0.2,0.2,1.0,,1.37
8.335359999999923,0.2,0.2,1.0,-4.0,
8.34516999999994,0.2,0.0,0.2,,2.28
8.35489999999993,0.2,0.0,0.2,,2.28
8.36471999999992,0.3,0.6,0.1,,1.37
8.374529999999936,0.3,0.6,0.1,,1.37
8.384339999999952,0.4,0.1,0.2,,2.28
8.394159999999943,0.4,0.1,0.2,0.4,
8.403969999999958,-0.2,0.2,-0.2,-1.0,
8.413779999999974,-0.2,0.2,-0.2,,1.96
8.423599999999965,0.6,0.2,-0.3,0.8,
8.43340999999998,0.6,0.2,-0.3,,1.69
8.443219999999997,0.6,0.2,-0.3,,1.05
8.453039999999987,-0.2,0.2,0.2,,1.05
8.462850000000003,-0.2,0.2,0.2,,1.05
8.472579999999994,0.1,-0.3,-0.1,,0.95
8.48239000000001,0.1,-0.3,-0.1,,0.95
8.492199999999912,-0.3,-0.2,0.1,,1.37
8.502020000000016,-0.3,-0.2,0.1,,1.37
8.511829999999918,0.1,-0.6,0.5,,1.0
8.521639999999934,0.1,-0.6,0.5,,1.0
8.531459999999925,-0.6,0.2,0.1,-1.2,
8.54126999999994,-0.6,0.2,0.1,,1.73
8.551079999999956,0.1,0.6,-0.1,,1.0
8.560899999999947,0.1,0.6,-0.1,3.6,
8.570709999999963,-0.3,-0.2,0.0,,1.0
8.580519999999979,-0.3,-0.2,0.0,,1.0
8.590249999999969,-0.2,0.3,1.1,-0.6,
8.60006999999996,-0.2,0.3,1.1,,1.0
8.609879999999976,0.2,0.3,-0.1,,1.0
8.619689999999991,0.2,0.3,-0.1,-4.0,
8.629509999999982,0.2,0.3,-0.1,,1.69
8.639319999999998,0.8,-0.4,-0.1,,1.69
8.649130000000014,0.8,-0.4,-0.1,,1.69
8.658950000000004,-0.8,-0.6,-1.0,,1.05
8.668759999999907,-0.8,-0.6,-1.0,,1.05
8.678569999999922,0.0,-0.2,-0.1,,1.27
8.688389999999913,0.0,-0.2,-0.1,-4.4,
8.698199999999929,0.4,-0.4,0.4,,2.28
8.70792999999992,0.4,-0.4,0.4,,2.28
8.717739999999935,-0.2,-0.4,0.2,,2.28
8.727549999999951,-0.2,-0.4,0.2,,2.28
8.737369999999942,0.1,0.0,0.3,,2.42
8.747179999999958,0.1,0.0,0.3,-5.2,
8.756989999999973,-0.4,0.0,0.3,,1.37
8.766809999999964,-0.4,0.0,0.3,,1.37
8.77661999999998,-1.2,-0.5,-0.1,,1.0
8.786429999999996,-1.2,-0.5,-0.1,,1.0
8.796249999999986,0.5,-0.6,0.1,,1.18
8.806060000000002,0.5,-0.6,0.1,3.6,
8.815869999999904,-0.3,-0.3,-1.3,,1.78
8.825600000000009,-0.3,-0.3,-1.3,,1.78
8.83540999999991,-0.3,-0.3,-1.3,,1.0
8.845230000000015,-0.2,-0.2,-0.2,,1.0
8.855039999999917,-0.2,-0.2,-0.2,,1.0
8.864849999999933,-0.2,0.0,0.3,,1.18
8.874669999999924,-0.2,0.0,0.3,,1.18
8.88447999999994,-0.4,-0.8,0.5,,1.55
8.894289999999955,-0.4,-0.8,0.5,,1.55
8.904109999999946,-0.4,-0.3,-0.5,,1.18
8.913919999999962,-0.4,-0.3,-0.5,,1.18
8.923729999999978,0.1,-0.1,0.0,,1.0
8.933549999999968,0.1,-0.1,0.0,,1.0
8.943359999999984,-1.2,-1.2,0.0,3.6,
8.953089999999975,-1.2,-1.2,0.0,,1.18
8.96289999999999,0.1,1.2,0.2,,2.28
8.972719999999981,0.1,1.2,0.2,-3.8,
8.982529999999997,0.5,-0.7,-1.6,,1.0
8.992340000000013,0.5,-0.7,-1.6,,1.0
9.002160000000003,1.5,-0.4,0.1,,1.73
9.011969999999906,1.5,-0.4,0.1,,1.73
9.021779999999922,1.5,-0.4,0.1,,1.37
9.031599999999912,-0.8,0.9,0.4,-3.4,
9.041409999999928,-0.8,0.9,0.4,-3.4,
9.051219999999944,1.1,0.5,0.0,,1.18
9.061039999999934,1.1,0.5,0.0,,1.18
9.07084999999995,0.5,0.0,0.0,,1.0
9.080659999999966,0.5,0.0,0.0,,1.0
9.090389999999957,-0.6,0.4,-0.6,,1.59
9.100199999999973,-0.6,0.4,-0.6,-4.4,
9.110019999999963,1.4,0.2,0.2,,1.78
9.119829999999979,1.4,0.2,0.2,,1.78
9.129639999999995,0.5,-1.2,-0.1,,2.6
9.139459999999985,0.5,-1.2,-0.1,,2.6
9.149270000000001,-0.7,0.4,-0.9,,1.0
9.159080000000017,-0.7,0.4,-0.9,-2.0,
9.168900000000008,0.7,0.3,0.0,,1.5
9.17870999999991,0.7,0.3,0.0,,1.5
9.188519999999926,-0.3,0.0,0.1,,1.37
9.198249999999916,-0.3,0.0,0.1,,1.37
9.208069999999907,-0.3,-0.1,-1.5,,1.0
9.217879999999923,-0.3,-0.1,-1.5,,1.0
9.227689999999939,-0.3,-0.1,-1.5,,1.32
9.23750999999993,0.2,-0.3,0.1,,1.32
9.247319999999945,0.2,-0.3,0.1,1.2,
9.257129999999961,0.5,-0.7,-0.8,,2.28
9.266949999999952,0.5,-0.7,-0.8,,2.28
9.276759999999967,-0.6,0.6,0.5,,1.0
9.286569999999983,-0.6,0.6,0.5,,1.0
9.296389999999974,0.0,-0.1,0.4,,1.37
9.30619999999999,0.0,-0.1,0.4,,1.37
9.31592999999998,1.1,-0.4,-0.2,,1.96
9.325739999999996,1.1,-0.4,-0.2,,1.96
9.335550000000012,-0.2,-0.2,-0.6,,0.73
9.345370000000003,-0.2,-0.2,-0.6,2.2,
9.355179999999905,-0.1,0.4,-0.2,0.4,
9.36498999999992,-0.1,0.4,-0.2,,2.28
9.374809999999911,0.5,-0.3,1.4,,2.28
9.384619999999927,0.5,-0.3,1.4,-5.2,
9.394429999999943,0.6,0.2,-0.3,,2.28
9.404249999999934,0.6,0.2,-0.3,,2.28
9.41405999999995,0.6,0.2,-0.3,5.0,
9.423869999999965,-0.7,1.4,0.4,5.0,
9.433599999999956,-0.7,1.4,0.4,,1.18
9.443409999999972,0.9,0.1,0.0,-1.2,
9.453229999999962,0.9,0.1,0.0,,1.0
9.463039999999978,0.2,-0.3,0.6,,1.96
9.472849999999994,0.2,-0.3,0.6,,1.96
9.482669999999985,-0.3,-0.3,0.1,0.4,
9.49248,-0.3,-0.3,0.1,,2.28
9.502290000000016,0.3,-0.1,0.0,0.8,
9.512110000000007,0.3,-0.1,0.0,0.8,
9.52191999999991,-0.3,0.7,0.0,,1.18
9.531729999999925,-0.3,0.7,0.0,,1.18
9.541549999999916,0.6,0.4,-0.8,-2.4,
9.551359999999931,0.6,0.4,-0.8,,2.28
9.561089999999922,-1.4,0.3,0.1,,2.28
9.570899999999938,-1.4,0.3,0.1,-6.0,
9.580719999999928,0.4,0.3,0.3,-2.4,
9.590529999999944,0.4,0.3,0.3,,1.18
9.60033999999996,-0.4,0.1,0.0,-1.2,
9.61015999999995,-0.4,0.1,0.0,,1.18
9.619969999999967,-0.4,0.1,0.0,,1.37
9.629779999999982,-1.1,0.7,-0.2,,1.37
9.639599999999973,-1.1,0.7,-0.2,-4.0,
9.649409999999989,0.3,-0.1,-0.1,,2.28
9.659220000000005,0.3,-0.1,-0.1,,2.28
9.669039999999995,-0.5,0.1,-0.1,,1.05
9.678760000000011,-0.5,0.1,-0.1,,1.05
9.688580000000002,-0.2,0.1,0.4,,1.37
9.698390000000018,-0.2,0.1,0.4,,1.37
9.70819999999992,0.5,-0.1,0.7,-4.0,
9.71801999999991,0.5,-0.1,0.7,,1.37
9.727829999999926,-0.8,0.3,-1.4,,1.37
9.737639999999942,-0.8,0.3,-1.4,-4.0,
9.747459999999933,-0.3,-0.2,0.3,,1.09
9.757269999999949,-0.3,-0.2,0.3,,1.09
9.767079999999964,0.4,-0.9,0.5,-3.4,
9.776899999999955,0.4,-0.9,0.5,-3.4,
9.786709999999971,0.2,0.0,0.0,,1.27
9.796519999999987,0.2,0.0,0.0,0.8,
9.806249999999977,0.2,0.0,0.0,,1.55
9.816069999999968,-0.1,-1.6,0.6,,1.55
9.825879999999984,-0.1,-1.6,0.6,,1.55
9.83569,0.9,-0.8,0.3,0.8,
9.84550999999999,0.9,-0.8,0.3,,1.18
9.855320000000006,0.0,0.2,0.2,,2.28
9.865129999999908,0.0,0.2,0.2,0.4,
9.874950000000013,0.0,-1.5,-0.2,,1.59
9.884759999999915,0.0,-1.5,-0.2,,1.59
9.89456999999993,0.2,-0.5,0.8,2.8,
9.904389999999921,0.2,-0.5,0.8,,1.18
9.914109999999937,-1.4,-0.6,-0.3,,1.18
9.923929999999928,-1.4,-0.6,-0.3,0.8,
9.933739999999943,-0.4,-0.2,0.3,,1.69
9.94354999999996,-0.4,-0.2,0.3,,1.69
9.95336999999995,-0.2,-0.3,0.3,,2.28
9.963179999999966,-0.2,-0.3,0.3,,2.28
9.972989999999982,0.0,0.3,-0.8,,1.05
9.982809999999972,0.0,0.3,-0.8,,1.05
9.992619999999988,0.0,0.3,-0.8,,1.05
10.002430000000004,0.6,0.5,-0.4,,1.05
10.012249999999995,0.6,0.5,-0.4,,1.05
10.02197000000001,-0.4,-0.5,0.0,,1.69
10.03179,-0.4,-0.5,0.0,,1.69
10.041600000000017,0.4,0.4,-0.3,,2.28
10.051409999999919,0.4,0.4,-0.3,0.4,
10.06122999999991,-0.5,1.4,0.2,0.8,
10.071039999999925,-0.5,1.4,0.2,,1.18
10.080849999999941,0.0,-0.7,-1.1,,1.37
10.090669999999932,0.0,-0.7,-1.1,,1.37
10.100479999999948,-0.1,0.3,0.0,,1.32
10.110289999999964,-0.1,0.3,0.0,,1.32
10.120109999999954,-0.4,-0.5,-0.1,1.6,
10.12991999999997,-0.4,-0.5,-0.1,,1.69
10.13964999999996,-0.2,-0.4,-0.1,,1.41
10.149459999999976,-0.2,-0.4,-0.1,,1.41
10.159279999999967,0.0,0.5,-0.7,,1.5
10.169089999999983,0.0,0.5,-0.7,,1.5
10.178899999999999,-0.1,-1.4,-0.2,,2.74
10.18871999999999,-0.1,-1.4,-0.2,-1.0,
10.198530000000005,-0.1,-1.4,-0.2,,1.37
10.208339999999907,0.0,-0.5,-1.4,,1.37
10.218160000000012,0.0,-0.5,-1.4,-4.0,
10.227969999999914,0.2,0.8,0.5,,2.1
10.23777999999993,0.2,0.8,0.5,,2.1
10.24750999999992,-0.5,0.9,0.3,3.6,
10.257319999999936,-0.5,0.9,0.3,,1.0
10.267139999999927,-0.3,-0.6,-1.2,,1.69
10.276949999999943,-0.3,-0.6,-1.2,-1.2,
10.286759999999958,-0.5,-0.6,0.1,,1.78
10.296579999999949,-0.5,-0.6,0.1,,1.78
10.306389999999965,0.2,-0.2,-0.4,-6.0,
10.31619999999998,0.2,-0.2,-0.4,,2.28
10.326019999999971,-0.4,-0.7,-0.2,,1.46
10.335829999999987,-0.4,-0.7,-0.2,2.2,
10.345640000000003,-0.9,-0.8,0.2,,2.23
10.355459999999994,-0.9,-0.8,0.2,,2.23
10.36527000000001,0.5,-0.1,-0.1,,2.28
10.375,0.5,-0.1,-0.1,,2.28
10.384810000000016,-1.3,-0.3,-0.2,,1.37
10.394630000000006,-1.3,-0.3,-0.2,,1.37
10.404439999999909,-1.3,-0.3,-0.2,-4.0,
10.414249999999925,-0.6,0.7,0.2,,1.18
10.424069999999915,-0.6,0.7,0.2,,1.18
10.433879999999931,0.0,-0.1,-0.1,,1.0
10.443689999999947,0.0,-0.1,-0.1,,1.0
10.453509999999937,-0.6,-0.6,-0.6,,1.37
10.463319999999953,-0.6,-0.6,-0.6,1.0,
10.47312999999997,-0.5,0.8,0.2,,1.0
10.48285999999996,-0.5,0.8,0.2,,1.0
10.492669999999976,0.0,0.4,-1.4,,1.18
10.502489999999966,0.0,0.4,-1.4,,1.18
10.512299999999982,-0.4,-0.5,-0.1,,1.14
10.522109999999998,-0.4,-0.5,-0.1,-1.2,
10.531929999999988,-0.2,0.1,-0.6,-2.0,
10.541740000000004,-0.2,0.1,-0.6,,1.46
10.551549999999907,1.1,-0.3,-1.0,,1.32
10.56137000000001,1.1,-0.3,-1.0,,1.32
10.571179999999913,-0.6,-0.5,0.1,,2.28
10.580989999999929,-0.6,-0.5,0.1,,2.28
10.59071999999992,-0.6,-0.5,0.1,0.8,
10.600529999999935,-0.4,0.9,-0.1,,1.0
10.610349999999926,-0.4,0.9,-0.1,,1.0
10.620159999999942,1.2,0.3,-0.3,,1.91
10.629969999999958,1.2,0.3,-0.3,,1.91
10.639789999999948,0.6,-0.1,0.0,,2.28
10.649599999999964,0.6,-0.1,0.0,,2.28
10.65940999999998,0.3,0.2,-0.3,3.6,
10.66922999999997,0.3,0.2,-0.3,,1.0
10.679039999999986,0.5,0.0,0.0,,1.27
10.688850000000002,0.5,0.0,0.0,,1.27
10.698669999999993,0.2,0.1,0.3,,1.37
10.708399999999983,0.2,0.1,0.3,,1.37
10.71821,-0.3,0.1,-0.5,2.2,
10.728020000000015,-0.3,0.1,-0.5,,1.73
10.737840000000006,0.0,-0.4,0.5,,1.32
10.747649999999908,0.0,-0.4,0.5,1.6,
10.757459999999924,0.2,-0.1,-0.1,,1.0
10.767279999999914,0.2,-0.1,-0.1,,1.0
10.77708999999993,0.2,-0.1,-0.1,-4.0,
10.786899999999946,-0.5,0.4,-0.5,,1.05
10.796719999999937,-0.5,0.4,-0.5,,1.05
10.806529999999952,-0.3,-0.2,0.0,3.2,
10.816339999999968,-0.3,-0.2,0.0,3.2,
10.826159999999959,0.0,1.4,0.4,,1.05
10.835879999999975,0.0,1.4,0.4,,1.05
10.845699999999965,-0.6,0.0,-1.1,,1.96
10.855509999999981,-0.6,0.0,-1.1,,1.96
10.865319999999997,0.3,0.1,-0.1,,2.42
10.875139999999988,0.3,0.1,-0.1,0.4,
10.884950000000003,0.6,0.2,-0.2,,1.59
10.894759999999906,0.6,0.2,-0.2,,1.59
10.90458000000001,0.3,0.2,-1.4,,2.28
10.914389999999912,0.3,0.2,-1.4,,2.28
10.924199999999928,0.6,-0.4,0.1,,1.0
10.934019999999919,0.6,-0.4,0.1,3.6,
10.943829999999934,0.0,0.3,-0.6,2.2,
10.953559999999925,0.0,0.3,-0.6,,1.37
10.96336999999994,-0.1,-0.1,0.2,1.2,
10.973189999999931,-0.1,-0.1,0.2,,1.27
10.982999999999947,-0.1,-0.1,0.2,,1.96
10.992809999999963,0.2,0.0,0.0,,1.96
11.002629999999954,0.2,0.0,0.0,,1.96
11.01243999999997,-0.2,0.1,0.0,,1.96
11.022249999999985,-0.2,0.1,0.0,,1.96
11.032069999999976,-0.1,0.5,0.0,,2.28
11.041879999999992,-0.1,0.5,0.0,,2.28
11.051690000000008,-0.2,0.4,0.2,,2.1
11.061419999999998,-0.2,0.4,0.2,,2.1
11.071230000000014,-1.4,0.1,0.0,3.6,
11.081050000000005,-1.4,0.1,0.0,,0.68
11.090859999999907,-0.6,0.3,-0.2,,1.37
11.100669999999923,-0.6,0.3,-0.2,3.2,
11.110489999999913,0.4,-0.2,0.5,,1.27
11.12029999999993,0.4,-0.2,0.5,,1.27
11.130109999999945,0.4,0.2,0.4,0.2,
11.139929999999936,0.4,0.2,0.4,,1.37
11.149739999999952,-0.3,0.0,0.2,,1.32
11.159549999999967,-0.3,0.0,0.2,-2.6,
11.169369999999958,-0.3,0.0,0.2,,1.0
11.179089999999974,0.5,0.4,-1.2,,1.0
11.188909999999964,0.5,0.4,-1.2,,1.0
11.19871999999998,-1.0,0.4,-0.2,,1.78
11.208529999999996,-1.0,0.4,-0.2,,1.78
11.218349999999987,-0.2,0.3,0.0,-3.4,
11.228160000000003,-0.2,0.3,0.0,-3.4,
11.237969999999905,0.2,-0.2,0.3,,1.5
11.247790000000009,0.2,-0.2,0.3,,1.5
11.257599999999911,0.7,0.6,0.9,5.0,
11.267409999999927,0.7,0.6,0.9,,1.0
11.277229999999918,-0.4,-0.1,0.7,5.0,
11.286959999999908,-0.4,-0.1,0.7,5.0,
11.296769999999924,0.2,1.5,-0.4,,1.37
11.30657999999994,0.2,1.5,-0.4,,1.37
11.31639999999993,-0.3,0.4,-0.1,5.0,
11.326209999999946,-0.3,0.4,-0.1,,1.18
11.336019999999962,-0.3,-0.7,0.3,,2.28
11.345839999999953,-0.3,-0.7,0.3,0.4,
11.355649999999969,0.4,0.6,0.0,,1.37
11.365459999999985,0.4,0.6,0.0,,1.37
11.375279999999975,0.4,0.6,0.0,,1.41
11.385089999999991,0.2,-1.6,-0.1,,1.41
11.394900000000007,0.2,-1.6,-0.1,,1.41
11.404719999999998,-0.2,-0.3,0.7,0.2,
11.414530000000013,-0.2,-0.3,0.7,,1.37
11.424260000000004,0.3,0.0,0.5,,1.27
11.434069999999906,0.3,0.0,0.5,-4.4,
11.443879999999922,0.3,-0.8,0.6,,1.5
11.453699999999913,0.3,-0.8,0.6,,1.5
11.463509999999928,-1.4,-0.4,-0.2,,1.37
11.473319999999944,-1.4,-0.4,-0.2,,1.37
11.483139999999935,0.3,1.2,-0.6,,1.73
11.49294999999995,0.3,1.2,-0.6,,1.73
11.502759999999967,-0.4,0.1,0.3,,1.41
11.512579999999957,-0.4,0.1,0.3,,1.41
11.522389999999973,-0.4,-0.5,0.2,,0.86
11.532199999999989,-0.4,-0.5,0.2,,0.86
11.54192999999998,-0.5,0.6,-0.6,,1.27
11.55174999999997,-0.5,0.6,-0.6,,1.27
11.561559999999986,-0.5,0.6,-0.6,,1.18
11.571370000000002,-0.3,-0.4,1.3,-0.6,
11.581189999999992,-0.3,-0.4,1.3,,1.18
11.591000000000008,0.3,-1.1,-0.5,,1.37
11.60080999999991,0.3,-1.1,-0.5,,1.37
11.610630000000015,0.1,0.2,0.2,,2.28
11.620439999999917,0.1,0.2,0.2,,2.28
11.630249999999933,0.1,0.0,-0.5,0.4,
11.640069999999923,0.1,0.0,-0.5,,2.6
11.64987999999994,-0.3,-1.0,-0.4,,2.28
11.65960999999993,-0.3,-1.0,-0.4,,2.28
11.669419999999946,0.3,-0.1,0.6,1.0,
11.679229999999961,0.3,-0.1,0.6,,1.5
11.689049999999952,1.5,0.0,-0.2,0.8,
11.698859999999968,1.5,0.0,-0.2,0.8,
11.708669999999984,-0.6,1.0,0.3,,1.37
11.718489999999974,-0.6,1.0,0.3,,1.37
11.72829999999999,-0.1,-0.2,-0.5,,0.91
11.738110000000006,-0.1,-0.2,-0.5,,0.91
11.747929999999997,0.9,0.2,-0.3,,1.37
11.757740000000013,0.9,0.2,-0.3,-2.0,
11.767549999999915,0.9,0.2,-0.3,,1.32
11.777279999999905,-1.0,0.1,-0.5,,1.32
11.787089999999921,-1.0,0.1,-0.5,-2.0,
11.796909999999912,-0.4,0.6,-1.1,,1.0
11.806719999999927,-0.4,0.6,-1.1,,1.0
11.816529999999943,-0.2,0.2,0.3,-6.6,
11.826349999999934,-0.2,0.2,0.3,,2.28
11.83615999999995,-0.6,0.9,-0.1,,1.96
11.845969999999966,-0.6,0.9,-0.1,,1.96
11.855789999999956,-0.4,-0.2,0.9,,1.18
11.865599999999972,-0.4,-0.2,0.9,,1.18
11.875409999999988,0.4,0.0,-0.1,,2.6
11.885229999999979,0.4,0.0,-0.1,,2.6
11.89495999999997,-0.7,0.3,0.2,,1.18
11.904769999999985,-0.7,0.3,0.2,,1.18
11.91458,0.1,0.0,1.1,,1.5
11.924399999999991,0.1,0.0,1.1,,1.5
11.934210000000007,0.2,0.0,0.0,,1.37
11.94401999999991,0.2,0.0,0.0,,1.37
11.953840000000014,0.2,0.0,0.0,,1.55
11.963649999999916,-0.7,0.1,-0.4,,1.55
11.973459999999932,-0.7,0.1,-0.4,2.4,
11.983279999999922,1.2,0.5,0.2,,1.37
11.993089999999938,1.2,0.5,0.2,,1.37
12.002819999999929,0.3,-0.2,-0.3,,1.91
12.012629999999945,0.3,-0.2,-0.3,,1.91
12.02243999999996,-0.2,0.4,0.2,,1.87
12.032259999999951,-0.2,0.4,0.2,,1.87
12.042069999999967,1.2,0.2,0.0,,1.0
12.051879999999983,1.2,0.2,0.0,,1.0
12.061699999999973,0.5,1.5,-0.1,,1.96
12.07150999999999,0.5,1.5,-0.1,,1.96
12.081320000000005,-1.1,0.6,1.1,-3.4,
12.091139999999996,-1.1,0.6,1.1,,1.0
12.100950000000012,0.1,-0.5,-0.1,,1.18
12.110759999999914,0.1,-0.5,-0.1,-0.6,
12.120579999999904,0.8,-0.4,1.0,,2.28
12.130310000000009,0.8,-0.4,1.0,,2.28
12.14011999999991,-0.3,0.6,-1.5,0.2,
12.149929999999927,-0.3,0.6,-1.5,,1.0
12.159749999999917,-0.3,0.6,-1.5,,1.0
12.169559999999933,-0.3,0.6,-0.1,-1.2,
12.179369999999949,-0.3,0.6,-0.1,,1.05
12.18918999999994,0.4,-0.3,-0.2,,1.05
12.198999999999955,0.4,-0.3,-0.2,,1.05
12.208809999999971,0.2,-0.2,1.2,,1.0
12.218629999999962,0.2,-0.2,1.2,,1.0
12.228439999999978,0.2,0.4,-0.4,0.8,
12.238249999999994,0.2,0.4,-0.4,,1.0
12.247979999999984,0.3,-0.1,-0.1,,1.05
12.25779,0.3,-0.1,-0.1,,1.05
12.26760999999999,0.4,0.3,0.1,,1.37
12.277420000000006,0.4,0.3,0.1,,1.37
12.287229999999909,-0.3,-0.2,-0.1,,2.28
12.297050000000013,-0.3,-0.2,-0.1,,2.28
12.306859999999915,0.6,-0.3,0.3,,1.96
12.316669999999931,0.6,-0.3,0.3,,1.96
12.326489999999922,0.5,0.0,0.2,0.4,
12.336299999999937,0.5,0.0,0.2,,2.28
12.346109999999953,0.5,0.0,0.2,3.6,
12.355839999999944,-0.3,0.0,0.3,,1.0
12.36564999999996,-0.3,0.0,0.3,,1.0
12.37546999999995,-0.2,-0.1,-0.1,,1.78
12.385279999999966,-0.2,-0.1,-0.1,2.2,
12.395089999999982,0.6,0.1,0.8,,1.69
12.404909999999973,0.6,0.1,0.8,,1.69
12.414719999999988,-0.1,0.1,0.1,,1.05
12.424530000000004,-0.1,0.1,0.1,,1.05
12.434349999999995,0.2,-0.7,0.4,,1.5
12.44416000000001,0.2,-0.7,0.4,-2.4,
12.453969999999913,0.4,0.0,0.0,,2.6
12.463790000000017,0.4,0.0,0.0,,2.6
12.473520000000008,0.3,-0.2,-0.2,,1.32
12.48332999999991,0.3,-0.2,-0.2,,1.32
12.493139999999926,0.6,-0.1,-0.1,-1.2,
12.502959999999916,0.6,-0.1,-0.1,,1.18
12.512769999999932,0.5,-0.8,1.4,1.2,
12.522579999999948,0.5,-0.8,1.4,,1.91
12.532399999999939,0.4,1.0,0.2,,1.37
12.542209999999955,0.4,1.0,0.2,,1.37
12.55201999999997,0.4,1.0,0.2,,1.37
12.561839999999961,0.7,0.3,0.2,,1.37
12.571649999999977,0.7,0.3,0.2,,1.37
12.581459999999993,0.6,0.5,1.2,-4.0,
12.591279999999983,0.6,0.5,1.2,,1.37
12.600999999999999,0.2,-0.2,0.2,,1.96
12.61081999999999,0.2,-0.2,0.2,,1.96
12.620630000000006,-0.5,1.4,0.0,,2.28
12.630439999999908,-0.5,1.4,0.0,,2.28
12.640260000000012,1.2,0.2,0.6,-2.0,
12.650069999999914,1.2,0.2,0.6,,1.27
12.65987999999993,0.8,-0.4,-0.4,,1.18
12.66969999999992,0.8,-0.4,-0.4,,1.18
12.679509999999937,0.7,0.4,0.3,,2.28
12.689319999999952,0.7,0.4,0.3,,2.28
12.699139999999943,0.6,0.0,0.6,,1.59
12.708949999999959,0.6,0.0,0.6,,1.59
12.71867999999995,0.2,0.7,0.5,,1.87
12.728489999999965,0.2,0.7,0.5,,1.87
12.738309999999956,0.2,0.7,0.5,,1.37
12.748119999999972,0.1,-0.3,-1.5,,1.37
12.757929999999988,0.1,-0.3,-1.5,,1.37
12.767749999999978,0.4,0.4,0.1,,1.18
12.777559999999994,0.4,0.4,0.1,,1.18
12.78737000000001,-0.5,0.3,-0.8,,1.27
12.79719,-0.5,0.3,-0.8,,1.27
12.807000000000016,-1.2,1.0,0.0,,2.74
12.816809999999919,-1.2,1.0,0.0,,2.74
12.82662999999991,-0.1,0.0,-0.3,,2.28
12.836349999999925,-0.1,0.0,-0.3,,2.28
12.846169999999915,0.0,-0.7,-1.0,2.2,
12.855979999999931,0.0,-0.7,-1.0,,1.32
12.865789999999947,0.2,0.0,0.0,,2.28
12.875609999999938,0.2,0.0,0.0,-2.4,
12.885419999999954,0.3,-0.6,1.1,,2.28
12.89522999999997,0.3,-0.6,1.1,,2.28
12.90504999999996,-0.5,-0.9,0.5,,1.96
12.914859999999976,-0.5,-0.9,0.5,,1.96
12.924669999999992,-0.5,-0.9,0.5,,2.28
12.934489999999983,0.6,0.1,-0.5,-3.8,
12.944299999999998,0.6,0.1,-0.5,,1.27
12.954029999999989,-0.4,-0.8,0.5,,1.27
12.963840000000005,-0.4,-0.8,0.5,,1.27
12.973649999999907,-0.2,-0.5,-1.4,,2.28
12.983470000000011,-0.2,-0.5,-1.4,,2.28
12.993279999999913,0.3,0.6,-0.6,-2.0,
13.00308999999993,0.3,0.6,-0.6,-2.0,
13.01290999999992,0.1,-0.6,0.4,,0.91
13.022719999999936,0.1,-0.6,0.4,,0.91
13.032529999999952,-1.2,-0.2,-1.1,,1.78
13.042349999999942,-1.2,-0.2,-1.1,,1.78
13.052159999999958,0.4,0.9,-0.4,,1.96
13.061969999999974,0.4,0.9,-0.4,0.4,
13.071699999999964,-0.4,-0.8,0.1,,1.78
13.081519999999955,-0.4,-0.8,0.1,,1.78
13.09132999999997,-1.1,-0.9,0.6,,1.0
13.101139999999987,-1.1,-0.9,0.6,,1.0
13.110959999999977,0.4,0.1,0.1,,1.78
13.120769999999993,0.4,0.1,0.1,,1.78
13.130580000000009,0.4,0.1,0.1,,2.28
13.1404,-1.0,-0.2,0.4,,2.28
13.150210000000015,-1.0,-0.2,0.4,,2.28
13.160019999999918,-1.4,-0.3,-1.6,,1.27
13.169839999999908,-1.4,-0.3,-1.6,,1.27
13.179649999999924,0.5,0.5,-0.3,,1.37
13.18945999999994,0.5,0.5,-0.3,,1.37
13.19927999999993,0.0,-0.2,-0.1,-2.4,
13.208999999999946,0.0,-0.2,-0.1,,2.28
13.218819999999937,-1.2,0.1,-0.1,,2.28
13.228629999999953,-1.2,0.1,-0.1,0.4,
13.238439999999969,-0.6,0.5,-0.2,,2.28
13.24825999999996,-0.6,0.5,-0.2,,2.28
13.258069999999975,-0.4,-0.5,-0.7,0.4,
13.267879999999991,-0.4,-0.5,-0.7,,2.6
13.277699999999982,-0.3,-0.5,0.0,,1.32
13.287509999999997,-0.3,-0.5,0.0,0.2,
13.297320000000013,0.0,-1.3,0.1,5.0,
13.307140000000004,0.0,-1.3,0.1,,1.27
13.316869999999994,0.0,-1.3,0.1,3.6,
13.32668000000001,0.7,0.3,-0.2,,0.86
13.336489999999912,0.7,0.3,-0.2,,0.86
13.346310000000017,-0.6,-1.1,-0.1,,1.82
13.356119999999919,-0.6,-1.1,-0.1,3.6,
13.365929999999935,0.3,0.9,-0.4,,1.73
13.375749999999925,0.3,0.9,-0.4,,1.73
13.385559999999941,0.1,0.2,1.1,,1.96
13.395369999999957,0.1,0.2,1.1,,1.96
13.405189999999948,-1.0,-0.5,0.0,,1.73
13.414999999999964,-1.0,-0.5,0.0,,1.73
13.42480999999998,0.3,0.9,0.0,-1.0,
13.43462999999997,0.3,0.9,0.0,,1.5
13.444349999999986,0.5,0.0,-0.2,,1.37
13.454169999999976,0.5,0.0,-0.2,,1.37
13.463979999999992,0.2,-0.3,-0.3,,1.18
13.473790000000008,0.2,-0.3,-0.3,,1.18
13.483609999999999,-0.9,0.2,-0.5,-2.0,
13.493420000000015,-0.9,0.2,-0.5,,1.32
13.503229999999917,1.2,0.0,-0.6,,1.37
13.513049999999907,1.2,0.0,-0.6,,1.37
13.522859999999923,1.2,0.0,-0.6,,1.0
13.53266999999994,-0.9,0.9,0.3,,1.0
13.54239999999993,-0.9,0.9,0.3,,1.0
13.552299999999946,0.1,-0.4,0.0,1.6,
13.562029999999936,0.1,-0.4,0.0,,1.5
13.571839999999952,0.0,0.0,0.1,,1.05
13.581649999999968,0.0,0.0,0.1,-4.0,
13.591469999999958,-0.5,1.4,-0.4,,2.1
13.601279999999974,-0.5,1.4,-0.4,,2.1
13.61108999999999,-0.5,-0.3,-0.3,-3.4,
13.62090999999998,-0.5,-0.3,-0.3,,1.37
13.630719999999997,0.7,-0.4,0.7,,2.6
13.640530000000012,0.7,-0.4,0.7,0.4,
13.650350000000003,-0.4,0.2,0.0,,1.0
13.660159999999905,-0.4,0.2,0.0,,1.0
13.669969999999921,-0.1,0.2,-1.5,,2.1
13.679699999999912,-0.1,0.2,-1.5,,2.1
13.689520000000016,0.3,-0.2,-0.3,,2.28
13.699329999999918,0.3,-0.2,-0.3,,2.28
13.709139999999934,0.3,-0.2,-0.3,,1.69
13.718959999999925,-0.8,0.5,-0.7,,1.69
13.72876999999994,-0.8,0.5,-0.7,,1.69
13.738579999999956,0.4,-0.3,0.0,,1.41
13.748399999999947,0.4,-0.3,0.0,,1.41
13.758209999999963,0.9,0.0,-0.3,,1.96
13.768019999999979,0.9,0.0,-0.3,-3.8,
13.77783999999997,-0.2,-0.4,0.1,0.4,
13.787649999999985,-0.2,-0.4,0.1,,2.28
13.797379999999976,1.1,0.5,0.3,,1.05
13.807189999999991,1.1,0.5,0.3,,1.05
13.817000000000007,1.1,1.1,-0.2,,1.09
13.826819999999998,1.1,1.1,-0.2,,1.09
13.836630000000014,0.9,0.4,0.1,-2.4,
13.846439999999916,0.9,0.4,0.1,-2.4,
13.856259999999907,-0.4,0.3,0.2,,1.0
13.866069999999922,-0.4,0.3,0.2,,1.0
13.875879999999938,-0.1,1.3,0.4,,1.0
13.885699999999929,-0.1,1.3,0.4,,1.0
13.895509999999945,-0.3,-0.1,0.7,,1.59
13.90531999999996,-0.3,-0.1,0.7,-1.6,
13.915049999999951,-0.3,-0.1,0.7,,1.05
13.924869999999942,-0.6,-0.1,1.5,,1.05
13.934679999999958,-0.6,-0.1,1.5,1.6,
13.944489999999973,0.5,-0.5,-0.3,,1.37
13.954309999999964,0.5,-0.5,-0.3,,1.37
13.96411999999998,0.3,0.1,-0.2,-1.2,
13.973929999999996,0.3,0.1,-0.2,,1.05
13.983749999999986,-0.7,0.3,0.2,,1.27
13.993560000000002,-0.7,0.3,0.2,0.8,
14.003369999999904,-0.2,0.2,-0.4,,1.37
14.013190000000009,-0.2,0.2,-0.4,,1.37
14.02299999999991,0.2,0.0,0.6,,2.42
14.032809999999927,0.2,0.0,0.6,,2.42
14.042539999999917,-0.7,0.2,0.0,,1.37
14.052349999999933,-0.7,0.2,0.0,,1.37
14.062169999999924,0.8,0.0,0.2,,1.73
14.07197999999994,0.8,0.0,0.2,,1.73
14.081789999999955,-0.7,0.3,-0.6,,1.37
14.091609999999946,-0.7,0.3,-0.6,,1.37
14.101419999999962,-0.7,0.3,-0.6,,1.05
14.111229999999978,0.5,0.1,0.4,,1.05
14.121049999999968,0.5,0.1,0.4,-3.4,
14.130859999999984,-0.7,1.3,0.0,0.8,
14.14067,-0.7,1.3,0.0,,1.37
14.15039999999999,0.2,-0.3,0.3,,1.09
14.160210000000006,0.2,-0.3,0.3,,1.09
14.170029999999997,0.7,-0.1,0.1,,2.28
14.179840000000013,0.7,-0.1,0.1,,2.28
14.189649999999915,-0.2,0.4,0.0,0.8,
14.199469999999906,-0.2,0.4,0.0,,1.0
14.209279999999922,0.4,-0.3,0.3,,0.86
14.219089999999937,0.4,-0.3,0.3,,0.86
14.228909999999928,0.1,0.4,0.1,0.4,
14.238719999999944,0.1,0.4,0.1,,2.28
14.24852999999996,0.5,0.3,1.4,-4.4,
14.25825999999995,0.5,0.3,1.4,-4.4,
14.26807999999994,0.0,-0.8,0.4,,1.96
14.277889999999957,0.0,-0.8,0.4,,1.96
14.287699999999973,-0.2,1.1,-0.1,,1.78
14.297519999999963,-0.2,1.1,-0.1,,1.78
14.307329999999979,-0.2,1.1,-0.1,-4.0,
14.317139999999995,0.6,0.6,-0.4,-4.0,
14.326959999999985,0.6,0.6,-0.4,,1.37
14.336770000000001,-0.4,-0.1,0.5,,0.68
14.346580000000017,-0.4,-0.1,0.5,-2.0,
14.356400000000008,0.4,0.5,-0.4,,1.05
14.36620999999991,0.4,0.5,-0.4,,1.05
14.375940000000014,0.4,1.1,-0.5,0.4,
14.385749999999916,0.4,1.1,-0.5,,2.6
14.395559999999932,0.6,-0.7,0.0,,1.05
14.405379999999923,0.6,-0.7,0.0,-3.4,
14.415189999999939,0.5,0.0,-1.6,,1.41
14.424999999999955,0.5,0.0,-1.6,,1.41
14.434819999999945,-0.6,0.6,-0.4,,1.37
14.444629999999961,-0.6,0.6,-0.4,,1.37
14.454439999999977,-0.3,-0.7,0.4,0.0,
14.464259999999967,-0.3,-0.7,0.4,,1.32
14.474069999999983,-0.3,-0.6,-0.3,0.4,
14.48388,-0.3,-0.6,-0.3,,2.28
14.49369999999999,-0.3,-0.6,-0.3,,1.64
14.50342999999998,0.2,0.2,0.3,,1.64
14.513239999999996,0.2,0.2,0.3,,1.64
14.523050000000012,0.3,-0.7,0.0,,2.1
14.532870000000003,0.3,-0.7,0.0,,2.1
14.542679999999905,0.1,-0.5,-0.4,-2.0,
14.55248999999992,0.1,-0.5,-0.4,,1.5
14.562309999999911,0.4,0.4,-0.7,,1.32
14.572119999999927,0.4,0.4,-0.7,,1.32
14.581929999999943,-1.5,-0.6,-0.5,-3.4,
14.591749999999934,-1.5,-0.6,-0.5,,1.78
14.60155999999995,0.2,-0.7,0.0,-4.4,
14.611369999999965,0.2,-0.7,0.0,-4.4,
14.621099999999956,0.6,0.1,-0.3,,1.37
14.630909999999972,0.6,0.1,-0.3,,1.37
14.640729999999962,-0.7,-0.5,0.1,-2.0,
14.650539999999978,-0.7,-0.5,0.1,,1.32
14.660349999999994,-0.5,0.1,0.2,,1.0
14.670169999999985,-0.5,0.1,0.2,-2.0,
14.67998,0.0,-0.3,-0.1,,1.05
14.689790000000016,0.0,-0.3,-0.1,,1.05
14.699610000000007,0.0,-0.3,-0.1,,2.28
14.70941999999991,-0.7,-0.4,-0.5,,2.28
14.719229999999925,-0.7,-0.4,-0.5,,2.28
14.729049999999916,-0.5,0.6,-0.1,,2.42
14.738769999999931,-0.5,0.6,-0.1,,2.42
14.748589999999922,0.1,0.0,1.5,,1.96
14.758399999999938,0.1,0.0,1.5,,1.96
14.768209999999954,0.1,0.5,0.0,,2.42
14.778029999999944,0.1,0.5,0.0,,2.42
14.78783999999996,-0.6,0.4,0.3,,1.0
14.797649999999976,-0.6,0.4,0.3,,1.0
14.807469999999967,1.0,0.1,-0.3,-4.8,
14.817279999999982,1.0,0.1,-0.3,,0.95
14.827089999999998,0.7,0.5,-0.2,,1.0
14.836909999999989,0.7,0.5,-0.2,5.0,
14.84663999999998,0.2,-0.3,0.1,,2.28
14.856449999999995,0.2,-0.3,0.1,,2.28
14.866260000000011,0.3,0.4,-0.1,,2.28
14.876080000000002,0.3,0.4,-0.1,0.4,
14.885890000000018,0.3,0.4,-0.1,,1.46
14.89569999999992,0.6,0.0,0.1,-4.4,
14.90551999999991,0.6,0.0,0.1,,1.46
14.915329999999926,-0.6,0.4,-0.3,,2.28
14.925139999999942,-0.6,0.4,-0.3,,2.28
14.934959999999933,0.9,-0.5,0.2,0.0,
14.944769999999949,0.9,-0.5,0.2,,1.37
14.954579999999964,0.3,0.6,-0.4,,1.0
14.964309999999955,0.3,0.6,-0.4,3.6,
14.97411999999997,1.1,0.8,-0.2,,1.0
14.983939999999961,1.1,0.8,-0.2,,1.0
14.993749999999977,0.7,-1.5,-0.5,-2.0,
15.003559999999993,0.7,-1.5,-0.5,,1.0
15.013379999999984,0.7,0.1,0.3,,1.37
15.02319,0.7,0.1,0.3,-4.0,
15.033000000000015,-0.1,0.9,-0.2,,1.32
15.042820000000006,-0.1,0.9,-0.2,,1.32
15.052629999999908,0.1,0.2,-0.1,,1.05
15.062439999999924,0.1,0.2,-0.1,,1.05
15.072259999999915,0.5,-0.6,1.2,,1.0
15.081989999999905,0.5,-0.6,1.2,,1.0
15.091799999999921,0.5,-0.6,1.2,,0.68
15.101609999999937,0.0,0.4,-0.1,,0.68
15.111429999999928,0.0,0.4,-0.1,,0.68
15.121239999999943,-0.8,0.5,-0.2,,1.37
15.13104999999996,-0.8,0.5,-0.2,,1.37
15.14086999999995,0.8,0.3,0.4,,1.37
15.150679999999966,0.8,0.3,0.4,,1.37
15.160489999999982,0.5,0.3,0.5,3.6,
15.170309999999972,0.5,0.3,0.5,,1.0
15.180119999999988,0.5,-0.1,-1.5,,2.28
15.189930000000004,0.5,-0.1,-1.5,,2.28
15.199749999999995,0.1,0.4,0.2,,1.0
15.20947000000001,0.1,0.4,0.2,,1.0
15.21929,-0.3,0.0,-0.1,-1.2,
15.229100000000017,-0.3,0.0,-0.1,,1.73
15.238909999999919,1.4,0.1,0.1,,1.73
15.24872999999991,1.4,0.1,0.1,,1.73
15.258539999999925,-0.1,-1.5,-0.1,,0.91
15.268349999999941,-0.1,-1.5,-0.1,,0.91
15.278169999999932,-0.1,-1.5,-0.1,4.0,
15.287979999999948,0.2,-0.7,0.0,4.0,
15.297789999999964,0.2,-0.7,0.0,,1.37
15.307609999999954,-0.2,0.4,-0.2,,1.32
15.31732999999997,-0.2,0.4,-0.2,,1.32
15.32714999999996,0.0,-0.7,0.5,,2.28
15.336959999999976,0.0,-0.7,0.5,,2.28
15.346769999999992,0.2,-0.2,-0.3,-3.8,
15.356589999999983,0.2,-0.2,-0.3,,2.6
15.366399999999999,0.2,0.7,0.4,,0.82
15.376210000000015,0.2,0.7,0.4,0.8,
15.386030000000005,-0.4,-0.3,-0.4,,1.0
15.395839999999907,-0.4,-0.3,-0.4,,1.0
15.405649999999923,-0.6,-0.2,-0.5,0.2,
15.415469999999914,-0.6,-0.2,-0.5,,1.73
15.42527999999993,-0.3,0.0,0.1,,1.18
15.435089999999946,-0.3,0.0,0.1,3.6,
15.444819999999936,-1.5,-0.5,-0.3,-4.8,
15.454639999999927,-1.5,-0.5,-0.3,,1.59
15.464449999999943,-1.5,-0.5,-0.3,1.6,
15.474259999999958,-0.2,0.1,0.1,,1.05
15.484079999999949,-0.2,0.1,0.1,,1.05
15.493889999999965,-0.5,0.2,1.4,,1.0
15.50369999999998,-0.5,0.2,1.4,,1.0
15.513519999999971,-0.2,-0.7,0.3,,1.59
15.523329999999987,-0.2,-0.7,0.3,,1.59
15.533140000000003,-0.6,-0.3,0.1,,1.59
15.542959999999994,-0.6,-0.3,0.1,,1.59
15.55268000000001,0.1,-0.1,1.5,,1.05
15.5625,0.1,-0.1,1.5,,1.05
15.572310000000016,-0.6,0.9,-0.1,,1.5
15.582119999999918,-0.6,0.9,-0.1,,1.5
15.591939999999909,-0.9,-0.1,-0.5,,2.6
15.601749999999925,-0.9,-0.1,-0.5,,2.6
15.61155999999994,0.3,-0.2,-0.4,,1.73
15.621379999999931,0.3,-0.2,-0.4,,1.73
15.631189999999947,0.5,1.2,-0.1,0.6,
15.640999999999963,0.5,1.2,-0.1,,1.37
15.650819999999953,-0.7,0.1,0.4,-2.6,
15.66062999999997,-0.7,0.1,0.4,,1.37
15.670439999999985,-0.7,0.1,0.4,,1.32
15.680169999999976,0.3,0.2,0.0,,1.32
15.689989999999966,0.3,0.2,0.0,,1.32
15.699799999999982,-0.6,0.2,-0.1,3.6,
15.709609999999998,-0.6,0.2,-0.1,,1.0
15.719429999999988,-0.3,0.6,0.2,,2.28
15.729240000000004,-0.3,0.6,0.2,,2.28
15.739049999999907,0.3,0.1,0.4,,1.0
15.74887000000001,0.3,0.1,0.4,,1.0
15.758679999999913,-0.6,0.4,-0.2,-4.0,
15.768489999999929,-0.6,0.4,-0.2,,0.91
15.77830999999992,1.0,0.9,0.2,,1.0
15.788029999999935,1.0,0.9,0.2,-0.6,
15.797849999999926,0.5,-0.4,0.2,,1.0
15.807659999999942,0.5,-0.4,0.2,,1.0
15.817469999999958,0.9,-0.1,-0.3,-1.0,
15.827289999999948,0.9,-0.1,-0.3,,2.28
15.837099999999964,-0.7,0.3,-0.4,,1.27
15.84690999999998,-0.7,0.3,-0.4,-2.6,
15.85672999999997,0.1,1.4,-0.5,,1.0
15.866539999999986,0.1,1.4,-0.5,,1.0
15.876350000000002,0.1,1.4,-0.5,,1.0
15.886169999999993,-0.2,0.3,-0.1,,1.96
15.895980000000009,-0.2,0.3,-0.1,,1.96
15.90571,0.3,0.2,-0.2,-4.8,
15.915520000000015,0.3,0.2,-0.2,-4.8,
15.925329999999917,0.5,1.3,0.1,,1.0
15.935149999999908,0.5,1.3,0.1,,1.0
15.944959999999924,0.4,-0.2,1.5,,1.0
15.95476999999994,0.4,-0.2,1.5,,1.0
15.96458999999993,0.6,0.9,-0.1,,1.0
15.974399999999946,0.6,0.9,-0.1,-4.0,
15.984209999999962,-0.2,1.1,0.3,,1.18
15.994029999999952,-0.2,1.1,0.3,,1.18
16.00383999999997,-0.2,-0.3,-0.7,,0.73
16.01356999999996,-0.2,-0.3,-0.7,,0.73
16.023379999999975,0.3,0.1,-0.5,,2.1
16.033199999999965,0.3,0.1,-0.5,,2.1
16.04300999999998,0.7,-1.3,-0.1,,1.69
16.052819999999997,0.7,-1.3,-0.1,,1.69
16.062639999999988,0.7,-1.3,-0.1,,1.18
16.072450000000003,0.1,0.3,-0.5,,1.18
16.082259999999906,0.1,0.3,-0.5,,1.18
16.09208000000001,0.2,0.2,-0.1,,2.28
16.101889999999912,0.2,0.2,-0.1,,2.28
16.111699999999928,1.0,-1.4,-0.1,,1.0
16.12151999999992,1.0,-1.4,-0.1,,1.0
16.131329999999934,0.5,0.1,1.4,,1.37
16.14113999999995,0.5,0.1,1.4,,1.37
16.15086999999994,-0.2,0.6,0.5,,1.96
16.160679999999957,-0.2,0.6,0.5,,1.96
16.170499999999947,0.3,-0.2,0.1,0.8,
16.180309999999963,0.3,-0.2,0.1,,1.27
16.19011999999998,-0.3,0.2,1.1,,1.96
16.19993999999997,-0.3,0.2,1.1,-3.8,
16.209749999999985,-0.2,0.3,0.1,,1.37
16.21956,-0.2,0.3,0.1,,1.37
16.229379999999992,-0.3,0.4,-0.1,,1.0
16.239190000000008,-0.3,0.4,-0.1,,1.0
16.24899999999991,-0.3,0.4,-0.1,,1.37
16.258820000000014,0.0,0.3,0.6,-0.6,
16.268629999999916,0.0,0.3,0.6,,1.37
16.278359999999907,-0.1,0.2,0.2,,1.0
16.288169999999923,-0.1,0.2,0.2,,1.0
16.297989999999913,0.4,0.2,-0.6,,1.0
16.30779999999993,0.4,0.2,-0.6,,1.0
16.317609999999945,0.5,-0.2,0.2,,1.32
16.327429999999936,0.5,-0.2,0.2,3.0,
16.33723999999995,0.5,-1.1,-0.1,,1.37
16.347049999999967,0.5,-1.1,-0.1,,1.37
16.356869999999958,-0.4,0.3,-0.4,,1.37
16.366679999999974,-0.4,0.3,-0.4,,1.37
16.37648999999999,-0.5,0.5,0.7,,1.0
16.38630999999998,-0.5,0.5,0.7,2.8,
16.396029999999996,0.2,-0.2,-0.4,,0.91
16.405849999999987,0.2,-0.2,-0.4,,0.91
16.415660000000003,1.4,0.4,0.0,,1.37
16.425469999999905,1.4,0.4,0.0,,1.37
16.43529000000001,0.4,-1.5,0.3,,1.27
16.44509999999991,0.4,-1.5,0.3,,1.27
16.454909999999927,0.4,-1.5,0.3,,2.55
16.464729999999918,0.7,0.5,0.1,,2.55
16.474539999999934,0.7,0.5,0.1,,2.55
16.48434999999995,0.1,0.5,-0.3,,1.41
16.49416999999994,0.1,0.5,-0.3,,1.41
16.503979999999956,-0.6,-1.3,0.7,,1.91
16.51378999999997,-0.6,-1.3,0.7,,1.91
16.523519999999962,0.2,-0.5,0.3,-1.6,
16.533329999999978,0.2,-0.5,0.3,,1.27
16.54314999999997,1.1,0.0,0.1,,1.96
16.552959999999985,1.1,0.0,0.1,,1.96
16.56277,0.3,-0.1,-0.6,,1.0
16.57258999999999,0.3,-0.1,-0.6,,1.0
16.582400000000007,-0.3,-0.2,0.0,-6.6,
16.59220999999991,-0.3,-0.2,0.0,,2.28
16.602030000000013,0.5,0.3,-0.1,,2.42
16.611839999999916,0.5,0.3,-0.1,0.4,
16.62164999999993,0.5,-0.1,0.6,,2.28
16.631469999999922,0.5,-0.1,0.6,,2.28
16.641199999999913,0.5,-0.1,0.6,-2.0,
16.65100999999993,0.2,-1.0,0.1,,1.18
16.660819999999944,0.2,-1.0,0.1,,1.18
16.670639999999935,-0.1,0.6,-0.6,0.2,
16.68044999999995,-0.1,0.6,-0.6,0.2,
16.690259999999967,0.2,-1.0,0.4,,1.73
16.700079999999957,0.2,-1.0,0.4,,1.73
16.709889999999973,0.4,-0.5,-1.2,,1.18
16.71969999999999,0.4,-0.5,-1.2,,1.18
16.72951999999998,0.1,1.0,-0.1,3.6,
16.739329999999995,0.1,1.0,-0.1,3.6,
16.74914000000001,-0.7,-0.4,-0.1,,1.37
16.758960000000002,-0.7,-0.4,-0.1,,1.37
16.768680000000018,0.1,-0.5,0.2,,1.0
16.778500000000008,0.1,-0.5,0.2,,1.0
16.78830999999991,0.4,0.2,0.3,,1.37
16.798119999999926,0.4,0.2,0.3,-0.6,
16.807939999999917,0.3,-0.9,0.0,,1.0
16.817749999999933,0.3,-0.9,0.0,,1.0
16.82755999999995,-0.3,-0.7,0.2,-4.0,
16.83737999999994,-0.3,-0.7,0.2,,1.05
16.847189999999955,-0.3,-0.7,0.2,1.6,
16.85699999999997,0.7,-1.5,-0.1,1.6,
16.86681999999996,0.7,-1.5,-0.1,,1.0
16.876629999999977,0.2,0.0,-0.4,,1.0
16.886439999999993,0.2,0.0,-0.4,3.6,
16.896169999999984,-0.3,-0.7,-0.2,,1.5
16.905989999999974,-0.3,-0.7,-0.2,,1.5
16.91579999999999,0.5,-0.2,0.1,,2.6
16.925610000000006,0.5,-0.2,0.1,,2.6
16.935429999999997,0.2,-0.2,0.2,,1.37
16.945240000000013,0.2,-0.2,0.2,,1.37
16.955049999999915,-0.5,0.1,-0.2,,1.78
16.964869999999905,-0.5,0.1,-0.2,,1.78
16.97467999999992,-0.4,0.0,0.2,,2.28
16.984489999999937,-0.4,0.0,0.2,,2.28
16.994309999999928,0.2,0.4,-0.5,-4.0,
17.004119999999944,0.2,0.4,-0.5,,1.05
17.013849999999934,-1.0,-1.0,-0.1,-0.6,
17.02365999999995,-1.0,-1.0,-0.1,,1.37
17.033469999999966,-1.0,-1.0,-0.1,,1.73
17.043289999999956,-0.3,-0.2,-0.2,,1.73
17.053099999999972,-0.3,-0.2,-0.2,,1.73
17.062909999999988,0.2,0.1,-0.2,,1.14
17.07272999999998,0.2,0.1,-0.2,-4.4,
17.082539999999995,-0.1,0.9,0.1,-0.6,
17.09235000000001,-0.1,0.9,0.1,,1.37
17.10217,-0.6,0.1,-0.2,,1.09
17.111980000000017,-0.6,0.1,-0.2,,1.09
17.12178999999992,1.2,-0.2,-0.4,,1.96
17.13151999999991,1.2,-0.2,-0.4,,1.96
17.141419999999925,-0.3,-0.9,-0.4,-3.4,
17.151149999999916,-0.3,-0.9,-0.4,-3.4,
17.160959999999932,-0.3,-0.1,-0.5,,2.28
17.170769999999948,-0.3,-0.1,-0.5,,2.28
17.18058999999994,1.4,-0.4,0.0,,1.18
17.190399999999954,1.4,-0.4,0.0,,1.18
17.20020999999997,-0.9,1.2,-0.3,,1.96
17.21002999999996,-0.9,1.2,-0.3,-3.8,
17.219839999999976,0.5,-0.2,0.0,,1.0
17.229649999999992,0.5,-0.2,0.0,,1.0
17.239469999999983,0.5,-0.2,0.0,,1.78
17.24928,0.3,0.1,0.0,,1.78
17.259090000000015,0.3,0.1,0.0,,1.78
17.268820000000005,-0.9,1.0,0.1,-3.8,
17.278639999999996,-0.9,1.0,0.1,,2.1
17.28845000000001,-0.8,0.4,-0.4,,1.0
17.298259999999914,-0.8,0.4,-0.4,-2.0,
17.308079999999904,0.3,0.3,0.2,,1.05
17.31788999999992,0.3,0.3,0.2,,1.05
17.327699999999936,0.1,-0.4,0.2,,1.18
17.337519999999927,0.1,-0.4,0.2,,1.18
17.347329999999943,-0.4,0.7,1.3,,1.41
17.35713999999996,-0.4,0.7,1.3,,1.41
17.36695999999995,0.3,-0.2,-0.2,,0.86
17.376769999999965,0.3,-0.2,-0.2,,0.86
17.38657999999998,0.3,0.0,0.1,,1.69
17.39630999999997,0.3,0.0,0.1,,1.69
17.406119999999987,1.4,-0.4,0.5,,0.86
17.415939999999978,1.4,-0.4,0.5,,0.86
17.425749999999994,1.4,-0.4,0.5,,2.28
17.43556000000001,0.4,0.2,-0.1,,2.28
17.44538,0.4,0.2,-0.1,,2.28
17.455190000000016,0.0,0.0,1.4,,1.73
17.464999999999918,0.0,0.0,1.4,,1.73
17.47481999999991,0.0,0.3,0.1,,1.69
17.484629999999925,0.0,0.3,0.1,,1.69
17.49443999999994,-0.4,0.0,-0.1,-2.6,
17.50425999999993,-0.4,0.0,-0.1,,1.73
17.51398999999992,-0.8,0.4,0.2,,1.14
17.523799999999937,-0.8,0.4,0.2,,1.14
17.533609999999953,-0.6,1.3,0.0,,1.96
17.543429999999944,-0.6,1.3,0.0,,1.96
17.55323999999996,0.7,0.2,-0.4,,1.37
17.563049999999976,0.7,0.2,-0.4,,1.37
17.572869999999966,-0.4,-0.5,0.0,,1.46
17.582679999999982,-0.4,-0.5,0.0,,1.46
17.592489999999998,0.8,0.3,-0.3,,1.41
17.60230999999999,0.8,0.3,-0.3,,1.41
17.612120000000004,-0.1,0.6,1.1,,2.28
17.621929999999907,-0.1,0.6,1.1,0.4,
17.63175000000001,-0.1,0.6,1.1,,1.27
17.641469999999913,-0.5,-0.1,-0.4,,1.27
17.651290000000017,-0.5,-0.1,-0.4,2.2,
17.66109999999992,-0.4,0.8,0.4,,1.37
17.670909999999935,-0.4,0.8,0.4,,1.37
17.680729999999926,0.2,0.0,-0.5,0.2,
17.69053999999994,0.2,0.0,-0.5,,1.78
17.700349999999958,0.5,-0.1,-0.6,,1.18
17.71016999999995,0.5,-0.1,-0.6,-0.6,
17.719979999999964,0.3,0.5,-0.1,,2.28
17.72978999999998,0.3,0.5,-0.1,,2.28
17.73960999999997,-0.7,-0.1,0.0,,1.59
17.749419999999986,-0.7,-0.1,0.0,,1.59
17.759149999999977,-0.2,-1.6,0.2,,2.28
17.768959999999993,-0.2,-1.6,0.2,,2.28
17.77877000000001,0.1,0.6,-1.0,,1.0
17.78859,0.1,0.6,-1.0,,1.0
17.798400000000015,-0.2,0.1,0.1,,2.6
17.808209999999917,-0.2,0.1,0.1,-3.8,
17.818029999999908,-0.2,0.1,0.1,,1.69
17.827839999999924,0.1,-0.6,0.3,,1.69
17.83764999999994,0.1,-0.6,0.3,-2.6,
17.84746999999993,0.3,1.1,1.5,,1.0
17.857279999999946,0.3,1.1,1.5,,1.0
17.867089999999962,-0.3,0.0,0.7,,0.36
17.876909999999953,-0.3,0.0,0.7,,0.36
17.88671999999997,0.0,-0.2,-0.1,,1.37
17.89644999999996,0.0,-0.2,-0.1,,1.37
17.906259999999975,0.0,0.9,-0.3,,1.0
17.916079999999965,0.0,0.9,-0.3,,1.0
17.92588999999998,-0.6,-0.1,-0.3,,2.28
17.935699999999997,-0.6,-0.1,-0.3,,2.28
17.945519999999988,-0.3,-0.6,-0.1,,1.59
17.955330000000004,-0.3,-0.6,-0.1,,1.59
17.965139999999906,-0.3,-1.2,-0.5,,1.0
17.97496000000001,-0.3,-1.2,-0.5,0.8,
17.984769999999912,-0.5,0.4,-1.0,,1.0
17.994579999999928,-0.5,0.4,-1.0,,1.0
18.00439999999992,-0.7,-0.8,-0.2,,2.28
18.014119999999934,-0.7,-0.8,-0.2,,2.28
18.023939999999925,-0.7,-0.8,-0.2,-4.6,
18.03374999999994,0.3,-0.3,0.2,-4.6,
18.043559999999957,0.3,-0.3,0.2,,1.5
18.053379999999947,0.2,-0.4,-0.4,,1.82
18.063189999999963,0.2,-0.4,-0.4,0.0,
18.07299999999998,-0.7,1.0,-0.5,,1.05
18.08281999999997,-0.7,1.0,-0.5,,1.05
18.092629999999986,-0.6,0.0,1.1,3.8,
18.10244,-0.6,0.0,1.1,3.8,
18.112259999999992,0.1,0.0,0.4,,1.37
18.122070000000008,0.1,0.0,0.4,-4.0,
18.1318,-0.6,0.3,-0.5,,1.96
18.141610000000014,-0.6,0.3,-0.5,,1.96
18.151430000000005,-0.6,0.2,0.0,,2.1
18.161239999999907,-0.6,0.2,0.0,-6.6,
18.171049999999923,1.3,-0.1,-0.2,,1.96
18.180869999999913,1.3,-0.1,-0.2,,1.96
18.19067999999993,-0.5,0.1,-0.4,0.8,
18.200489999999945,-0.5,0.1,-0.4,,1.0
18.210309999999936,-0.5,0.1,-0.4,-6.6,
18.22011999999995,-0.5,1.4,-0.4,-6.6,
18.229929999999968,-0.5,1.4,-0.4,,2.28
18.239749999999958,0.3,0.3,-1.5,,1.96
18.249559999999974,0.3,0.3,-1.5,0.4,
18.259289999999964,0.5,0.1,0.4,,2.28
18.26909999999998,0.5,0.1,0.4,,2.28
18.278909999999996,-0.2,0.4,-0.5,,1.46
18.288729999999987,-0.2,0.4,-0.5,,1.46
18.298540000000003,-0.9,-0.2,0.6,,1.05
18.308349999999905,-0.9,-0.2,0.6,,1.05
18.31817000000001,0.0,0.8,-0.3,,1.73
18.32797999999991,0.0,0.8,-0.3,,1.73
18.337789999999927,0.3,0.6,0.9,,2.55
18.347609999999918,0.3,0.6,0.9,,2.55
18.357419999999934,-0.6,-0.4,-0.1,,0.68
18.36722999999995,-0.6,-0.4,-0.1,,0.68
18.37695999999994,0.1,1.2,-0.3,-6.0,
18.386859999999956,0.1,1.2,-0.3,-6.0,
18.396589999999946,0.2,0.7,-1.5,,1.37
18.406399999999962,0.2,0.7,-1.5,,1.37
18.416209999999978,0.2,0.7,-1.5,,1.59
18.42602999999997,-0.3,-1.5,0.5,,1.59
18.435839999999985,-0.3,-1.5,0.5,,1.59
18.44565,-0.5,0.2,0.6,-4.8,
18.45546999999999,-0.5,0.2,0.6,,1.18
18.465280000000007,0.4,0.2,-0.1,,1.18
18.47508999999991,0.4,0.2,-0.1,-2.0,
18.484910000000013,0.3,-0.6,0.7,,1.32
18.494719999999916,0.3,-0.6,0.7,,1.32
18.504449999999906,-0.2,-0.1,-1.4,-2.0,
18.514259999999922,-0.2,-0.1,-1.4,-2.0,
18.524079999999913,0.3,-0.1,-0.4,,0.73
18.53388999999993,0.3,-0.1,-0.4,1.6,
18.543699999999944,0.0,-0.8,0.3,,0.41
18.553519999999935,0.0,-0.8,0.3,,0.41
18.56332999999995,-0.8,-0.3,0.5,,1.37
18.573139999999967,-0.8,-0.3,0.5,2.2,
18.582959999999957,0.0,-1.0,0.0,,1.96
18.592769999999973,0.0,-1.0,0.0,,1.96
18.60257999999999,0.0,-1.0,0.0,,1.0
18.61239999999998,0.4,-0.9,-1.0,,1.0
18.622209999999995,0.4,-0.9,-1.0,,1.0
18.63202000000001,-0.2,-0.3,-0.5,,1.05
18.641750000000002,-0.2,-0.3,-0.5,,1.05
18.651560000000018,-0.4,0.1,-0.3,,1.32
18.66138000000001,-0.4,0.1,-0.3,,1.32
18.67118999999991,0.7,-0.9,-0.3,,1.78
18.680999999999926,0.7,-0.9,-0.3,,1.78
18.690819999999917,-1.0,-0.2,-0.4,,1.0
18.700629999999933,-1.0,-0.2,-0.4,,1.0
18.71043999999995,-0.5,-0.6,0.0,,2.23
18.72025999999994,-0.5,-0.6,0.0,,2.23
18.730069999999955,0.0,-0.9,0.1,,1.78
18.73987999999997,0.0,-0.9,0.1,2.2,
18.74969999999996,0.0,-1.0,0.1,,0.77
18.759429999999952,0.0,-1.0,0.1,,0.77
18.769239999999968,0.1,0.1,-0.4,,2.28
18.779049999999984,0.1,0.1,-0.4,,2.28
18.788869999999974,0.3,-1.1,-1.3,,2.6
18.79867999999999,0.3,-1.1,-1.3,2.6,
18.808490000000006,0.3,-1.1,-1.3,,2.6
18.818309999999997,-0.4,-0.4,0.2,,1.73
18.828120000000013,-0.4,-0.4,0.2,3.0,
18.837929999999915,-0.3,-0.3,-0.1,,1.09
18.847749999999905,-0.3,-0.3,-0.1,,1.09
18.85755999999992,-0.2,-0.5,-1.0,,1.0
18.86728999999991,-0.2,-0.5,-1.0,-1.2,
18.877099999999928,-0.2,-0.8,-0.2,,1.64
18.886909999999943,-0.2,-0.8,-0.2,,1.64
18.896729999999934,-0.9,-1.6,0.2,,1.59
18.90653999999995,-0.9,-1.6,0.2,,1.59
18.916349999999966,0.3,0.2,1.3,,1.0
18.926169999999956,0.3,0.2,1.3,5.0,
18.935979999999972,-0.5,-0.5,-0.4,-2.0,
18.945789999999988,-0.5,-0.5,-0.4,,1.32
18.95560999999998,0.2,1.1,0.0,,1.0
18.965419999999995,0.2,1.1,0.0,,1.0
18.97523000000001,-0.8,0.2,1.2,,1.37
18.98496,-0.8,0.2,1.2,,1.37
18.994770000000017,-0.8,0.2,1.2,,1.0
19.004590000000007,-0.2,-0.3,-0.3,,1.0
19.01439999999991,-0.2,-0.3,-0.3,,1.0
19.024209999999925,0.0,0.4,-0.3,,0.68
19.034029999999916,0.0,0.4,-0.3,,0.68
19.043839999999932,-0.6,0.1,0.0,,0.68
19.053649999999948,-0.6,0.1,0.0,,0.68
19.06346999999994,-1.0,-0.3,-0.5,,1.27
19.073279999999954,-1.0,-0.3,-0.5,,1.27
19.08308999999997,0.2,0.1,0.1,,1.73
19.09290999999996,0.2,0.1,0.1,,1.73
19.102719999999977,0.2,-0.2,1.2,,1.73
19.112449999999967,0.2,-0.2,1.2,,1.73
19.122259999999983,-0.4,-0.4,0.2,-2.6,
19.132079999999974,-0.4,-0.4,0.2,,1.91
19.14188999999999,0.5,-0.5,-0.1,,2.33
19.151700000000005,0.5,-0.5,-0.1,-5.4,
19.161519999999996,1.2,0.2,-0.2,,1.14
19.17133000000001,1.2,0.2,-0.2,,1.14
19.181139999999914,-0.6,1.0,-0.3,,1.59
19.190959999999905,-0.6,1.0,-0.3,,1.59
19.20076999999992,-0.6,1.0,-0.3,-2.0,
19.210579999999936,0.6,-0.4,-0.1,-2.0,
19.220309999999927,0.6,-0.4,-0.1,,1.0
19.230119999999943,-0.4,0.3,-0.2,,1.0
19.239939999999933,-0.4,0.3,-0.2,,1.0
19.24974999999995,0.0,-0.1,0.0,,1.18
19.259559999999965,0.0,-0.1,0.0,,1.18
19.269379999999956,-1.5,0.1,-0.8,0.4,
19.27918999999997,-1.5,0.1,-0.8,0.4,
19.288999999999987,0.3,-0.3,0.5,,0.54
19.298819999999978,0.3,-0.3,0.5,,0.54
19.308629999999994,-0.4,0.4,-0.4,,1.14
19.31844000000001,-0.4,0.4,-0.4,,1.14
19.32817,1.2,0.2,-0.4,,1.0
19.33798999999999,1.2,0.2,-0.4,-2.0,
19.347800000000007,0.6,-0.3,0.2,,2.28
19.35760999999991,0.6,-0.3,0.2,,2.28
19.367430000000013,0.1,0.0,0.4,-4.4,
19.377239999999915,0.1,0.0,0.4,,1.32
19.38704999999993,0.1,0.0,0.4,,2.6
19.39686999999992,0.1,0.3,0.4,,2.6
19.406679999999938,0.1,0.3,0.4,,2.6
19.416489999999953,0.6,0.2,-0.3,,1.0
19.426309999999944,0.6,0.2,-0.3,0.8,
19.43611999999996,-0.4,0.0,1.5,,1.73
19.445929999999976,-0.4,0.0,1.5,,1.73
19.455659999999966,-0.7,-0.4,-0.1,,1.14
19.465469999999982,-0.7,-0.4,-0.1,,1.14
19.475289999999973,0.6,-1.4,-0.4,0.4,
19.48509999999999,0.6,-1.4,-0.4,,2.23
19.494910000000004,-0.2,0.3,1.2,,1.78
19.504729999999995,-0.2,0.3,1.2,,1.78
19.51454000000001,0.2,0.4,0.4,,2.28
19.524349999999913,0.2,0.4,0.4,,2.28
19.534170000000017,0.3,0.1,0.3,0.4,
19.54397999999992,0.3,0.1,0.3,,2.6
19.553789999999935,1.5,0.8,0.5,,1.0
19.563609999999926,1.5,0.8,0.5,2.2,
19.57332999999994,1.5,0.8,0.5,,1.0
19.583149999999932,0.3,-0.4,0.4,,1.0
19.592959999999948,0.3,-0.4,0.4,,1.0
19.602769999999964,-0.2,0.7,-0.1,,1.27
19.612589999999955,-0.2,0.7,-0.1,,1.27
19.62239999999997,-1.2,-0.2,0.1,-6.6,
19.632209999999986,-1.2,-0.2,0.1,-6.6,
19.642029999999977,-0.3,0.0,0.1,,2.28
19.651839999999993,-0.3,0.0,0.1,,2.28
19.66165000000001,0.6,0.2,0.0,,1.69
19.67147,0.6,0.2,0.0,,1.69
19.681280000000015,0.7,0.1,0.8,,1.37
19.691089999999917,0.7,0.1,0.8,1.6,
19.700819999999908,-0.5,0.0,0.0,3.0,
19.710640000000012,-0.5,0.0,0.0,,1.05
19.720449999999914,1.0,0.0,0.4,,0.95
19.73025999999993,1.0,0.0,0.4,,0.95
19.74007999999992,-0.3,0.0,0.1,,2.28
19.749889999999937,-0.3,0.0,0.1,,2.28
19.759699999999953,0.4,0.5,0.3,,1.27
19.769519999999943,0.4,0.5,0.3,,1.27
19.77932999999996,0.4,0.5,0.3,,1.96
19.789139999999975,-1.2,0.2,1.2,,1.96
19.798959999999965,-1.2,0.2,1.2,,1.96
19.80876999999998,0.3,0.1,0.0,,1.82
19.818579999999997,0.3,0.1,0.0,,1.82
19.828309999999988,-0.5,0.5,0.0,3.6,
19.838120000000004,-0.5,0.5,0.0,,1.0
19.847939999999994,0.6,0.4,-0.2,,1.32
19.85775000000001,0.6,0.4,-0.2,,1.32
19.867559999999912,-0.6,-1.4,0.5,,1.69
19.877380000000016,-0.6,-1.4,0.5,,1.69
19.88718999999992,-0.3,-0.2,-0.2,0.4,
19.896999999999935,-0.3,-0.2,-0.2,,2.1
19.906819999999925,1.4,0.6,0.1,,1.05
19.91662999999994,1.4,0.6,0.1,-1.2,
19.92635999999993,-0.2,-1.5,0.5,,1.05
19.936169999999947,-0.2,-1.5,0.5,,1.05
19.945989999999938,-0.1,0.5,-0.6,,2.28
19.955799999999954,-0.1,0.5,-0.6,,2.28
19.96560999999997,-0.1,0.5,-0.6,,2.74
19.97542999999996,-0.9,0.2,-0.7,-3.8,
19.985239999999976,-0.9,0.2,-0.7,-3.8,
19.995049999999992,0.3,-1.3,0.3,,1.0
20.004869999999983,0.3,-1.3,0.3,,1.0
20.01468,0.3,0.4,0.6,,1.73
20.024490000000014,0.3,0.4,0.6,,1.73
20.034310000000005,-0.3,1.0,0.1,,1.96
20.044119999999907,-0.3,1.0,0.1,-6.6,
20.053929999999923,-0.3,-0.6,0.1,,1.59
20.063659999999913,-0.3,-0.6,0.1,,1.59
20.07346999999993,1.4,0.1,-0.2,,1.46
20.08328999999992,1.4,0.1,-0.2,,1.46
20.093099999999936,0.3,0.5,0.1,,0.73
20.10290999999995,0.3,0.5,0.1,2.2,
20.112729999999942,0.4,-0.1,0.5,,2.23
20.122539999999958,0.4,-0.1,0.5,,2.23
20.132349999999974,0.5,0.9,-0.4,,1.37
20.142169999999965,0.5,0.9,-0.4,,1.37
20.15197999999998,-0.3,0.4,-0.2,,2.28
20.161789999999996,-0.3,0.4,-0.2,,2.28
20.171609999999987,-0.3,0.4,-0.2,,1.73
20.181420000000003,0.4,-1.0,0.0,,1.73
20.191229999999905,0.4,-1.0,0.0,,1.73
20.20096000000001,0.2,0.4,-0.9,,1.73
20.21076999999991,0.2,0.4,-0.9,,1.73
20.220590000000016,-0.2,1.5,0.5,,1.59
20.230399999999918,-0.2,1.5,0.5,,1.59
20.240209999999934,0.4,-0.6,-1.2,-2.0,
20.250029999999924,0.4,-0.6,-1.2,,1.0
20.25983999999994,0.3,-0.5,-0.1,,1.82
20.269649999999956,0.3,-0.5,-0.1,,1.82
20.279469999999947,0.3,0.0,-0.1,,1.18
20.289279999999962,0.3,0.0,-0.1,,1.18
20.29908999999998,-0.5,-0.4,-0.2,-0.6,
20.30890999999997,-0.5,-0.4,-0.2,,1.0
20.31863999999996,0.5,-1.4,-0.7,,1.0
20.328449999999975,0.5,-1.4,-0.7,-2.0,
20.33825999999999,-0.6,0.0,-0.1,,1.32
20.34807999999998,-0.6,0.0,-0.1,,1.32
20.357889999999998,-0.6,0.0,-0.1,3.6,
20.367700000000013,1.4,-0.8,0.0,,1.18
20.377520000000004,1.4,-0.8,0.0,,1.18
20.387329999999906,0.2,-0.8,0.0,-4.0,
20.397139999999922,0.2,-0.8,0.0,-4.0,
20.406959999999913,0.3,0.2,-1.6,,1.32
20.41676999999993,0.3,0.2,-1.6,,1.32
20.42649999999992,-0.3,1.1,-0.1,,1.14
20.436309999999935,-0.3,1.1,-0.1,,1.14
20.44611999999995,-0.7,0.6,-0.2,,1.37
20.45593999999994,-0.7,0.6,-0.2,0.2,
20.465749999999957,-0.1,0.0,-0.5,,1.0
20.475559999999973,-0.1,0.0,-0.5,,1.0
20.485379999999964,-0.5,0.1,-0.4,,0.68
20.49518999999998,-0.5,0.1,-0.4,,0.68
20.504999999999995,-0.4,0.7,-1.2,,1.32
20.514819999999986,-0.4,0.7,-1.2,-3.4,
20.524630000000002,0.2,0.4,0.3,-2.6,
20.534440000000018,0.2,0.4,0.3,,1.05
20.54417000000001,0.5,-0.6,0.4,-0.8,
20.55399,0.5,-0.6,0.4,,1.37
20.563800000000015,0.5,-0.6,0.4,,1.37
20.573609999999917,1.2,0.4,1.0,,1.37
20.583429999999908,1.2,0.4,1.0,,1.37
20.593239999999923,0.4,-1.3,-0.5,1.2,
20.60304999999994,0.4,-1.3,-0.5,,1.78
20.61286999999993,-0.4,0.4,0.0,,1.18
20.622679999999946,-0.4,0.4,0.0,,1.18
20.63248999999996,-0.4,0.0,0.2,,1.0
20.642309999999952,-0.4,0.0,0.2,,1.0
20.652119999999968,-0.1,-0.2,0.1,-3.4,
20.66184999999996,-0.1,-0.2,0.1,,1.14
20.671659999999974,1.7,-0.4,2.7,,2.28
20.68146999999999,1.7,-0.4,2.7,-5.2,
20.69128999999998,0.0,-0.3,-0.3,,1.73
20.701099999999997,0.0,-0.3,-0.3,,1.73
20.710910000000013,0.5,0.1,0.1,-4.4,
20.720730000000003,0.5,0.1,0.1,,1.32
20.730539999999905,1.4,0.3,0.1,,2.6
20.74034999999992,1.4,0.3,0.1,0.4,
20.750169999999912,1.4,0.3,0.1,,1.37
20.759979999999928,-0.3,0.5,-0.2,,1.37
20.769709999999918,-0.3,0.5,-0.2,,1.37
20.779519999999934,-0.3,0.3,0.0,,2.6
20.78932999999995,-0.3,0.3,0.0,,2.6
20.79914999999994,0.1,-0.1,0.4,,1.05
20.808959999999956,0.1,-0.1,0.4,-1.2,
20.818769999999972,-0.8,1.2,0.1,,0.68
20.828589999999963,-0.8,1.2,0.1,,0.68
20.83839999999998,-0.1,0.2,0.4,,1.5
20.848209999999995,-0.1,0.2,0.4,,1.5
20.858029999999985,0.0,-0.8,0.0,,1.73
20.86784,0.0,-0.8,0.0,-4.4,
20.877650000000017,-0.3,0.4,-1.6,,1.59
20.887470000000008,-0.3,0.4,-1.6,,1.59
20.897199999999998,-0.4,-0.9,0.5,,2.28
20.907010000000014,-0.4,-0.9,0.5,,2.28
20.916819999999916,0.7,-0.4,-0.2,,2.6
20.926639999999907,0.7,-0.4,-0.2,,2.6
20.936449999999923,0.5,0.4,-0.5,,2.28
20.94625999999994,0.5,0.4,-0.5,,2.28
20.95607999999993,0.5,0.4,-0.5,,1.0
20.965889999999945,0.6,-1.0,-0.6,,1.0
20.97569999999996,0.6,-1.0,-0.6,,1.0
20.98551999999995,-0.3,-0.5,0.7,,1.32
20.995329999999967,-0.3,-0.5,0.7,,1.32
21.005139999999983,0.2,0.7,-0.4,-2.4,
21.014869999999974,0.2,0.7,-0.4,,2.28
21.02467999999999,-0.3,-0.4,-0.1,,1.46
21.03449999999998,-0.3,-0.4,-0.1,,1.46
21.044309999999996,0.1,-1.3,0.3,,1.37
21.05412000000001,0.1,-1.3,0.3,,1.37
21.063940000000002,0.0,1.0,0.1,2.2,
21.073749999999905,0.0,1.0,0.1,,1.27
21.08355999999992,-0.2,-0.1,-0.5,,2.28
21.09337999999991,-0.2,-0.1,-0.5,-2.4,
21.103189999999927,-0.5,-0.6,0.0,,2.6
21.112999999999943,-0.5,-0.6,0.0,,2.6
21.122819999999933,0.4,0.9,-0.1,,1.37
21.13262999999995,0.4,0.9,-0.1,-1.2,
21.142439999999965,0.4,0.9,-0.1,,2.28
21.152169999999956,0.8,-0.6,0.9,0.4,
21.161989999999946,0.8,-0.6,0.9,0.4,
21.171799999999962,-0.8,-0.5,-0.2,,1.0
21.181609999999978,-0.8,-0.5,-0.2,,1.0
21.19142999999997,0.4,-0.4,-0.5,-3.0,
21.201239999999984,0.4,-0.4,-0.5,,1.55
21.21105,0.0,0.1,-1.6,,1.73
21.22086999999999,0.0,0.1,-1.6,-2.6,
21.230680000000007,0.5,1.0,-0.1,,2.28
21.24048999999991,0.5,1.0,-0.1,,2.28
21.250310000000013,0.0,-0.3,-1.5,0.0,
21.260119999999915,0.0,-0.3,-1.5,,1.73
21.269849999999906,0.8,1.0,0.2,,0.54
21.27965999999992,0.8,1.0,0.2,0.2,
21.289469999999937,-0.2,0.2,-1.6,,1.59
21.299289999999928,-0.2,0.2,-1.6,,1.59
21.309099999999944,-0.4,0.9,0.3,,1.27
21.31890999999996,-0.4,0.9,0.3,,1.27
21.32872999999995,1.0,-0.3,0.3,,1.18
21.338539999999966,1.0,-0.3,0.3,,1.18
21.348349999999982,1.0,-0.3,0.3,,1.0
21.358169999999973,-0.8,0.0,0.6,,1.0
21.36797999999999,-0.8,0.0,0.6,,1.0
21.377790000000005,0.4,0.4,0.5,,2.42
21.387609999999995,0.4,0.4,0.5,,2.42
21.39742000000001,0.4,0.2,1.3,,1.59
21.40715,0.4,0.2,1.3,,1.59
21.416960000000017,-0.1,0.2,-0.2,,0.91
21.42676999999992,-0.1,0.2,-0.2,,0.91
21.43658999999991,0.1,1.3,0.5,,2.42
21.446399999999926,0.1,1.3,0.5,,2.42
21.456209999999942,0.4,-0.1,0.3,,0.54
21.466029999999932,0.4,-0.1,0.3,,0.54
21.47583999999995,0.6,0.9,0.6,-6.0,
21.485649999999964,0.6,0.9,0.6,,1.78
21.495469999999955,0.2,-0.4,-0.4,,1.37
21.50527999999997,0.2,-0.4,-0.4,1.6,
21.515089999999987,0.3,0.9,0.7,,1.18
21.524819999999977,0.3,0.9,0.7,,1.18
21.534639999999968,0.3,0.9,0.7,,1.69
21.544449999999983,-0.4,-1.1,-0.1,,1.69
21.55426,-0.4,-1.1,-0.1,,1.69
21.56407999999999,0.5,-0.1,-0.1,0.4,
21.573890000000006,0.5,-0.1,-0.1,,2.1
21.583699999999908,-0.6,0.9,0.2,,2.28
21.593520000000012,-0.6,0.9,0.2,,2.28
21.603329999999914,0.5,0.3,0.0,0.0,
21.61313999999993,0.5,0.3,0.0,,1.0
21.62295999999992,1.5,0.7,-0.6,2.2,
21.632679999999937,1.5,0.7,-0.6,2.2,
21.642579999999953,0.6,-1.3,0.7,,2.1
21.652309999999943,0.6,-1.3,0.7,,2.1
21.66211999999996,0.1,-0.3,0.2,0.4,
21.67193999999995,0.1,-0.3,0.2,,2.28
21.681749999999965,0.0,0.3,0.3,,1.37
21.69155999999998,0.0,0.3,0.3,2.2,
21.701379999999972,0.2,-1.2,-0.3,-6.6,
21.711189999999988,0.2,-1.2,-0.3,,2.28
21.721000000000004,-0.2,-1.1,-0.1,3.0,
21.730819999999994,-0.2,-1.1,-0.1,,1.41
21.74063000000001,-0.2,-1.1,-0.1,,1.69
21.750439999999912,0.5,0.0,0.6,,1.69
21.760260000000017,0.5,0.0,0.6,,1.69
21.769990000000007,-0.6,-0.5,-1.3,,1.37
21.77979999999991,-0.6,-0.5,-1.3,,1.37
21.789609999999925,-0.7,-0.9,-0.4,,1.73
21.799429999999916,-0.7,-0.9,-0.4,,1.73
21.80923999999993,-0.5,0.1,0.3,,1.05
21.819049999999947,-0.5,0.1,0.3,,1.05
21.828869999999938,-0.3,-0.8,-1.0,,2.14
21.838679999999954,-0.3,-0.8,-1.0,,2.14
21.84848999999997,0.4,-0.8,0.2,,1.37
21.85830999999996,0.4,-0.8,0.2,,1.37
21.868119999999976,-0.2,-0.2,-0.5,,0.68
21.877849999999967,-0.2,-0.2,-0.5,,0.68
21.887659999999983,-0.6,-0.1,-0.2,-1.0,
21.89747,-0.6,-0.1,-0.2,,1.37
21.90728999999999,-0.4,-0.1,0.0,0.8,
21.917100000000005,-0.4,-0.1,0.0,,0.68
21.926909999999907,-0.4,-0.1,0.0,,1.0
21.93673000000001,0.4,-0.3,0.3,,1.0
21.946539999999914,0.4,-0.3,0.3,,1.0
21.95634999999993,-0.2,1.5,0.2,,1.96
21.96616999999992,-0.2,1.5,0.2,,1.96
21.975979999999936,-0.3,0.2,1.3,3.6,
21.98578999999995,-0.3,0.2,1.3,,1.37
21.995609999999942,0.1,0.3,0.3,,1.96
22.005329999999958,0.1,0.3,0.3,,1.96
22.01514999999995,0.5,0.1,0.4,-1.0,
22.024959999999965,0.5,0.1,0.4,,2.1
22.03476999999998,1.2,-0.1,0.2,,1.0
22.04458999999997,1.2,-0.1,0.2,,1.0
22.054399999999987,0.7,-0.1,0.1,,0.68
22.064210000000003,0.7,-0.1,0.1,,0.68
22.074029999999993,0.3,0.3,0.3,-3.8,
22.08384000000001,0.3,0.3,0.3,,2.28
22.09364999999991,-0.4,-0.4,-0.2,,1.69
22.103470000000016,-0.4,-0.4,-0.2,-3.4,
22.113200000000006,-0.3,1.0,-0.1,,1.73
22.12300999999991,-0.3,1.0,-0.1,,1.73
22.132819999999924,-0.3,1.0,-0.1,,1.73
22.142639999999915,0.1,-0.4,0.0,,1.0
22.15244999999993,0.1,-0.4,0.0,,1.0
22.162259999999947,0.9,-0.4,-0.2,0.8,
22.172079999999937,0.9,-0.4,-0.2,,1.32
22.181889999999953,0.2,1.5,0.0,,1.78
22.19169999999997,0.2,1.5,0.0,,1.78
22.20151999999996,0.2,0.0,-1.6,,1.37
22.211329999999975,0.2,0.0,-1.6,,1.37
22.22113999999999,0.3,0.1,-0.2,,2.28
22.230959999999982,0.3,0.1,-0.2,,2.28
22.240769999999998,0.8,0.0,0.6,,1.69
22.250499999999988,0.8,0.0,0.6,,1.69
22.260310000000004,-0.5,0.0,0.2,,1.69
22.270119999999906,-0.5,0.0,0.2,,1.69
22.27994000000001,-0.1,0.4,-0.2,,1.37
22.289749999999913,-0.1,0.4,-0.2,-1.4,
22.29955999999993,0.5,0.7,1.5,,1.69
22.30937999999992,0.5,0.7,1.5,,1.69
22.319189999999935,0.5,0.7,1.5,,1.0
22.32899999999995,0.1,-0.2,0.2,,1.0
22.33881999999994,0.1,-0.2,0.2,,1.0
22.348629999999957,0.2,0.3,0.1,,2.28
22.358359999999948,0.2,0.3,0.1,,2.28
22.368169999999964,-0.1,0.0,-0.3,,1.18
22.377989999999954,-0.1,0.0,-0.3,,1.18
22.38779999999997,0.4,-1.5,-0.2,,1.32
22.397609999999986,0.4,-1.5,-0.2,,1.32
22.407429999999977,0.3,0.1,1.2,,1.73
22.417239999999993,0.3,0.1,1.2,,1.73
22.42705000000001,0.2,0.3,0.0,,2.28
22.43687,0.2,0.3,0.0,,2.28
22.446680000000015,0.2,-0.3,0.3,,1.0
22.456489999999917,0.2,-0.3,0.3,,1.0
22.466309999999908,-1.3,0.6,-0.3,,1.5
22.476029999999923,-1.3,0.6,-0.3,,1.5
22.485849999999914,0.1,0.2,-0.3,,1.37
22.49565999999993,0.1,0.2,-0.3,,1.37
22.505469999999946,-0.2,-0.2,-1.5,,1.32
22.515289999999936,-0.2,-0.2,-1.5,1.2,
22.525099999999952,-0.2,-0.2,-1.5,,1.32
22.534909999999968,0.2,-0.4,-0.1,,1.32
22.54472999999996,0.2,-0.4,-0.1,,1.32
22.554539999999974,-0.4,-0.2,0.2,,1.37
22.56434999999999,-0.4,-0.2,0.2,,1.37
22.57416999999998,1.2,-0.8,-0.4,2.2,
22.583889999999997,1.2,-0.8,-0.4,,1.69
22.593709999999987,0.5,-1.3,-0.1,,1.37
22.603520000000003,0.5,-1.3,-0.1,,1.37
22.613329999999905,0.2,0.1,-0.2,,1.78
22.62315000000001,0.2,0.1,-0.2,,1.78
22.632959999999912,-0.5,-0.8,-0.4,3.6,
22.642769999999928,-0.5,-0.8,-0.4,3.6,
22.65258999999992,-0.4,-0.1,-0.1,,1.37
22.662399999999934,-0.4,-0.1,-0.1,,1.37
22.67220999999995,-1.6,0.3,0.8,,2.1
22.68202999999994,-1.6,0.3,0.8,,2.1
22.691839999999956,-0.5,1.1,0.0,,1.46
22.701649999999972,-0.5,1.1,0.0,3.0,
22.711469999999963,-0.5,1.1,0.0,,1.37
22.721199999999953,-1.0,0.2,1.5,,1.37
22.73100999999997,-1.0,0.2,1.5,-4.0,
22.740819999999985,0.3,-0.2,-0.2,,1.5
22.750639999999976,0.3,-0.2,-0.2,,1.5
22.76044999999999,0.1,-0.1,0.0,-4.8,
22.770260000000007,0.1,-0.1,0.0,,1.73
22.780079999999998,0.0,-0.2,0.2,,1.59
22.789890000000014,0.0,-0.2,0.2,0.8,
22.799699999999916,-0.3,0.3,0.2,,2.28
22.809519999999907,-0.3,0.3,0.2,,2.28
22.819329999999923,-0.9,1.2,-0.7,,1.73
22.829059999999913,-0.9,1.2,-0.7,,1.73
22.83886999999993,-0.4,0.3,0.5,,2.28
22.848679999999945,-0.4,0.3,0.5,-2.4,
22.858499999999935,0.3,0.0,-0.3,,1.46
22.86830999999995,0.3,0.0,-0.3,,1.46
22.878119999999967,0.7,0.2,-0.1,,1.37
22.887939999999958,0.7,0.2,-0.1,,1.37
22.897749999999974,0.7,0.2,-0.1,,1.37
22.90755999999999,0.1,0.0,0.3,,1.37
22.91737999999998,0.1,0.0,0.3,-1.2,
22.927189999999996,0.2,0.0,0.1,,0.68
22.937000000000012,0.2,0.0,0.1,,0.68
22.946730000000002,-1.3,-0.5,0.2,,1.27
22.956549999999993,-1.3,-0.5,0.2,,1.27
22.96636000000001,-0.7,0.6,-0.1,,1.37
22.97616999999991,-0.7,0.6,-0.1,,1.37
22.985990000000015,0.4,0.2,0.2,3.0,
22.995799999999917,0.4,0.2,0.2,,1.0
23.005609999999933,-0.3,0.1,0.1,,1.37
23.015429999999924,-0.3,0.1,0.1,,1.37
23.02523999999994,-0.3,0.1,0.4,,1.96
23.035049999999956,-0.3,0.1,0.4,,1.96
23.044869999999946,0.6,-0.1,0.4,0.8,
23.054589999999962,0.6,-0.1,0.4,0.8,
23.064409999999953,-0.4,0.9,-0.8,,1.37
23.07421999999997,-0.4,0.9,-0.8,,1.37
23.084029999999984,0.2,0.6,1.4,,1.0
23.093849999999975,0.2,0.6,1.4,,1.0
23.10365999999999,0.2,0.6,1.4,-5.4,
23.113470000000007,-0.4,0.2,1.1,-5.4,
23.123289999999997,-0.4,0.2,1.1,,1.46
23.133100000000013,0.1,-0.2,0.1,,1.18
23.142909999999915,0.1,-0.2,0.1,3.6,
23.152729999999906,0.5,0.1,1.1,,1.59
23.16253999999992,0.5,0.1,1.1,,1.59
23.172349999999938,0.5,0.5,0.5,-3.8,
23.182169999999928,0.5,0.5,0.5,,2.1
23.191889999999944,0.5,-0.6,0.1,,1.96
23.201709999999935,0.5,-0.6,0.1,-6.6,
23.21151999999995,1.1,1.0,-0.6,,1.37
23.221329999999966,1.1,1.0,-0.6,,1.37
23.231149999999957,0.1,0.3,-0.8,,1.0
23.240959999999973,0.1,0.3,-0.8,,1.0
23.25076999999999,-1.2,-1.6,0.2,3.0,
23.26058999999998,-1.2,-1.6,0.2,,1.0
23.270399999999995,-0.2,0.5,0.4,-1.0,
23.28021000000001,-0.2,0.5,0.4,,1.96
23.29003,-0.2,0.5,0.4,,1.41
23.299840000000017,-0.4,-0.1,1.4,,1.41
23.309570000000008,-0.4,-0.1,1.4,,1.41
23.31937999999991,-0.3,-1.0,-0.2,,2.28
23.329200000000014,-0.3,-1.0,-0.2,-6.0,
23.339009999999917,-0.3,-0.3,0.0,-6.6,
23.348819999999932,-0.3,-0.3,0.0,,1.96
23.358639999999923,-1.3,-0.4,1.2,,2.28
23.36844999999994,-1.3,-0.4,1.2,,2.28
23.378259999999955,-0.3,-0.3,-0.2,,1.0
23.388079999999945,-0.3,-0.3,-0.2,,1.0
23.39788999999996,0.2,-0.2,1.3,-1.8,
23.407699999999977,0.2,-0.2,1.3,-1.8,
23.417519999999968,0.0,0.4,0.0,,1.05
23.427239999999983,0.0,0.4,0.0,,1.05
23.437059999999974,0.5,-0.2,0.2,,2.28
23.44686999999999,0.5,-0.2,0.2,,2.28
23.456680000000006,1.4,0.1,-0.3,,2.33
23.466499999999996,1.4,0.1,-0.3,-2.0,
23.476310000000012,0.3,-0.1,0.0,,2.42
23.486119999999914,0.3,-0.1,0.0,,2.42
23.495939999999905,0.3,-0.1,0.0,,1.05
23.50574999999992,-1.1,0.7,0.0,,1.05
23.515559999999937,-1.1,0.7,0.0,,1.05
23.525379999999927,0.5,-0.7,0.6,,1.0
23.535189999999943,0.5,-0.7,0.6,,1.0
23.544919999999934,0.6,-0.1,-0.3,,1.27
23.55472999999995,0.6,-0.1,-0.3,,1.27
23.56454999999994,1.0,-0.3,1.4,,2.42
23.574359999999956,1.0,-0.3,1.4,,2.42
23.584169999999972,0.0,-0.1,0.5,,1.37
23.593989999999962,0.0,-0.1,0.5,,1.37
23.60379999999998,0.5,-0.2,-0.5,-4.0,
23.613609999999994,0.5,-0.2,-0.5,,1.37
23.623429999999985,0.3,0.2,-0.2,,1.32
23.63324,0.3,0.2,-0.2,0.8,
23.643050000000017,0.3,0.1,-0.1,,1.14
23.652780000000007,0.3,0.1,-0.1,,1.14
23.66258999999991,0.6,0.4,0.0,,2.28
23.672410000000013,0.6,0.4,0.0,,2.28
23.682219999999916,0.6,0.4,0.0,,0.54
23.69202999999993,0.5,0.5,-0.1,3.0,
23.701849999999922,0.5,0.5,-0.1,,0.54
23.711659999999938,0.3,-0.2,0.6,,1.73
23.721469999999954,0.3,-0.2,0.6,,1.73
23.731289999999944,0.2,0.5,-0.1,,1.0
23.74109999999996,0.2,0.5,-0.1,,1.0
23.750909999999976,0.0,0.6,0.3,,1.32
23.760729999999967,0.0,0.6,0.3,1.6,
23.770449999999983,0.4,-0.2,-0.1,,1.0
23.780269999999973,0.4,-0.2,-0.1,,1.0
23.79007999999999,0.4,0.2,0.5,,1.0
23.799890000000005,0.4,0.2,0.5,,1.0
23.809709999999995,-0.1,0.2,-0.3,,1.5
23.81952000000001,-0.1,0.2,-0.3,-3.2,
23.829329999999914,-1.5,0.4,-0.3,3.6,
23.839150000000018,-1.5,0.4,-0.3,,1.0
23.84895999999992,0.2,-1.2,0.0,,1.18
23.858769999999936,0.2,-1.2,0.0,,1.18
23.868589999999926,-0.3,0.4,-0.3,,1.0
23.878399999999942,-0.3,0.4,-0.3,,1.0
23.888209999999958,-0.3,0.4,-0.3,,1.37
23.89793999999995,0.1,0.5,-0.3,,1.37
23.90775999999994,0.1,0.5,-0.3,2.2,
23.917569999999955,-0.4,-1.4,0.3,,1.0
23.92737999999997,-0.4,-1.4,0.3,,1.0
23.93719999999996,0.3,1.3,0.4,,1.05
23.947009999999977,0.3,1.3,0.4,,1.05
23.956819999999993,-0.2,0.1,-0.2,,1.69
23.966639999999984,-0.2,0.1,-0.2,,1.69
23.97645,1.0,-0.8,0.2,,1.37
23.986260000000016,1.0,-0.8,0.2,,1.37
23.996080000000006,-1.5,-0.8,-0.1,,1.18
24.00588999999991,-1.5,-0.8,-0.1,,1.18
24.015699999999924,0.2,0.3,-0.1,-6.6,
24.025429999999915,0.2,0.3,-0.1,,2.28
24.03523999999993,-0.6,-0.6,-1.6,,0.68
24.04505999999992,-0.6,-0.6,-1.6,-2.0,
24.054869999999937,1.4,-1.1,-0.2,,1.37
24.064679999999953,1.4,-1.1,-0.2,,1.37
24.074499999999944,1.4,-1.1,-0.2,-0.6,
24.08430999999996,0.1,0.3,0.2,,1.18
24.094119999999975,0.1,0.3,0.2,,1.18
24.103939999999966,-0.2,-0.2,0.3,3.2,
24.113749999999982,-0.2,-0.2,0.3,,1.18
24.123559999999998,-0.4,-0.5,0.5,,1.18
24.13337999999999,-0.4,-0.5,0.5,,1.18
24.143190000000004,0.0,0.5,0.1,,1.14
24.152999999999906,0.0,0.5,0.1,,1.14
24.16273000000001,-1.4,-0.6,0.1,-2.2,
24.17255,-1.4,-0.6,0.1,-2.2,
24.182360000000017,-0.2,-1.0,0.0,,1.5
24.19216999999992,-0.2,-1.0,0.0,,1.5
24.20198999999991,0.3,-0.1,0.2,,1.37
24.211799999999926,0.3,-0.1,0.2,,1.37
24.22160999999994,-1.2,-1.0,0.0,,1.37
24.231429999999932,-1.2,-1.0,0.0,-3.4,
24.241239999999948,-0.5,0.1,-0.3,,1.73
24.251049999999964,-0.5,0.1,-0.3,,1.73
24.260869999999954,1.3,-0.2,-0.5,-1.2,
24.27067999999997,1.3,-0.2,-0.5,,1.37
24.28040999999996,1.3,-0.2,-0.5,,1.0
24.290309999999977,0.6,1.3,0.2,,1.0
24.300029999999992,0.6,1.3,0.2,,1.0
24.309849999999983,0.1,-0.2,1.0,,1.0
24.31966,0.1,-0.2,1.0,3.0,
24.329470000000015,0.6,0.0,0.3,,1.41
24.339290000000005,0.6,0.0,0.3,,1.41
24.349099999999908,0.7,0.0,-0.1,,1.69
24.358909999999923,0.7,0.0,-0.1,,1.69
24.368729999999914,0.1,0.5,-0.1,,1.0
24.37853999999993,0.1,0.5,-0.1,,1.0
24.388349999999946,0.2,1.1,0.8,,1.09
24.398079999999936,0.2,1.1,0.8,,1.09
24.407889999999952,-0.4,-0.1,-0.2,,2.1
24.417709999999943,-0.4,-0.1,-0.2,,2.1
24.42751999999996,1.2,0.3,-0.3,0.4,
24.437329999999974,1.2,0.3,-0.3,,2.28
24.447149999999965,0.5,1.3,0.0,1.6,
24.45695999999998,0.5,1.3,0.0,1.6,
24.466769999999997,0.5,1.3,0.0,,1.37
24.476589999999987,0.9,0.2,0.3,,1.37
24.486400000000003,0.9,0.2,0.3,,1.37
24.496209999999905,0.0,0.3,0.1,,1.78
24.50603000000001,0.0,0.3,0.1,,1.78
24.515839999999912,0.3,0.0,-0.6,-6.0,
24.525649999999928,0.3,0.0,-0.6,,0.68
24.53537999999992,-1.1,0.7,-0.4,,1.37
24.54519999999991,-1.1,0.7,-0.4,,1.37
24.555009999999925,1.0,0.2,0.7,,1.73
24.56481999999994,1.0,0.2,0.7,,1.73
24.57463999999993,0.1,0.5,0.4,-4.0,
24.584449999999947,0.1,0.5,0.4,-4.0,
24.594259999999963,-0.3,-0.1,0.1,,2.28
24.604079999999954,-0.3,-0.1,0.1,,2.28
24.61388999999997,-0.1,0.4,-0.5,,2.28
24.623699999999985,-0.1,0.4,-0.5,,2.28
24.633519999999976,0.6,0.0,-1.4,,1.5
24.64332999999999,0.6,0.0,-1.4,-4.0,
24.653059999999982,-0.1,0.5,-0.1,,1.05
24.662869999999998,-0.1,0.5,-0.1,,1.05
24.672680000000014,-0.1,0.5,-0.1,,1.0
24.682500000000005,-0.5,0.1,0.3,,1.0
24.692309999999907,-0.5,0.1,0.3,,1.0
24.702119999999923,0.1,0.4,0.5,,2.28
24.711939999999913,0.1,0.4,0.5,,2.28
24.72174999999993,-0.1,-0.2,0.1,,1.73
24.731559999999945,-0.1,-0.2,0.1,,1.73
24.741379999999936,0.3,0.4,-0.4,,1.0
24.75118999999995,0.3,0.4,-0.4,,1.0
24.760999999999967,0.2,0.2,-0.2,,1.5
24.770729999999958,0.2,0.2,-0.2,,1.5
24.78054999999995,0.2,-1.5,0.0,0.2,
24.790359999999964,0.2,-1.5,0.0,,1.09
24.80016999999998,0.2,0.5,-0.5,,1.37
24.80998999999997,0.2,0.5,-0.5,0.6,
24.819799999999987,0.8,0.1,0.4,,2.28
24.829610000000002,0.8,0.1,0.4,,2.28
24.839429999999993,-0.7,-0.5,0.6,,1.46
24.84924000000001,-0.7,-0.5,0.6,,1.46
24.85904999999991,-0.7,-0.5,0.6,,1.37
24.868870000000015,-0.2,0.2,-0.2,-2.2,
24.878679999999918,-0.2,0.2,-0.2,,1.37
24.888489999999933,0.1,0.0,-0.1,,1.5
24.898219999999924,0.1,0.0,-0.1,,1.5
24.90802999999994,-1.4,-0.4,0.8,,1.0
24.91784999999993,-1.4,-0.4,0.8,,1.0
24.927659999999946,0.1,0.3,0.3,,1.41
24.937469999999962,0.1,0.3,0.3,-4.4,
24.947289999999953,-0.9,0.0,-0.3,,2.1
24.95709999999997,-0.9,0.0,-0.3,,2.1
24.966909999999984,-1.2,-0.6,0.0,,2.6
24.976729999999975,-1.2,-0.6,0.0,,2.6
24.98653999999999,-0.8,0.8,-0.3,,2.6
24.996350000000007,-0.8,0.8,-0.3,,2.6
25.006079999999997,-0.5,0.1,-0.6,1.6,
25.015890000000013,-0.5,0.1,-0.6,,1.0
25.025710000000004,-0.9,-1.0,-0.3,,1.96
25.035519999999906,-0.9,-1.0,-0.3,,1.96
25.04532999999992,-0.5,1.4,-0.6,,2.28
25.055149999999912,-0.5,1.4,-0.6,,2.28
25.064959999999928,-0.5,1.4,-0.6,-2.0,
25.074769999999944,0.3,0.1,-0.1,,1.27
25.084589999999935,0.3,0.1,-0.1,,1.27
25.09439999999995,0.4,0.1,0.0,,1.32
25.104209999999966,0.4,0.1,0.0,,1.32
25.114029999999957,-0.4,-0.7,0.3,,1.37
25.123759999999947,-0.4,-0.7,0.3,,1.37
25.133569999999963,0.3,0.1,1.1,0.8,
25.14337999999998,0.3,0.1,1.1,,1.59
25.15319999999997,-0.3,-0.4,-0.1,,1.37
25.163009999999986,-0.3,-0.4,-0.1,,1.37
25.17282,-0.7,0.3,0.3,,1.0
25.182639999999992,-0.7,0.3,0.3,,1.0
25.192450000000008,0.2,0.1,0.3,-3.4,
25.20225999999991,0.2,0.1,0.3,,1.37
25.212080000000014,-0.8,0.5,-0.2,,1.0
25.221889999999917,-0.8,0.5,-0.2,,1.0
25.231699999999933,-0.4,0.0,1.4,,2.1
25.241429999999923,-0.4,0.0,1.4,,2.1
25.25123999999994,-0.4,0.0,1.4,-4.4,
25.26105999999993,0.6,0.2,0.0,,1.73
25.270869999999945,0.6,0.2,0.0,,1.73
25.28067999999996,-0.5,0.6,0.0,,2.28
25.290499999999952,-0.5,0.6,0.0,-6.6,
25.300309999999968,0.0,-0.1,-0.2,,1.73
25.310119999999984,0.0,-0.1,-0.2,,1.73
25.319939999999974,0.5,-0.1,-0.1,1.2,
25.32974999999999,0.5,-0.1,-0.1,,1.69
25.339560000000006,0.1,0.2,-0.8,,1.0
25.349379999999996,0.1,0.2,-0.8,-2.6,
25.359109999999987,-1.0,0.3,-0.3,,0.68
25.368920000000003,-1.0,0.3,-0.3,,0.68
25.378729999999905,0.8,-0.1,-0.1,2.2,
25.38855000000001,0.8,-0.1,-0.1,,1.37
25.39835999999991,0.5,0.4,0.2,,1.37
25.408169999999927,0.5,0.4,0.2,-0.6,
25.417989999999918,0.7,-0.2,-0.1,-2.0,
25.427799999999934,0.7,-0.2,-0.1,,1.41
25.43760999999995,0.1,1.1,-0.1,-1.0,
25.44742999999994,0.1,1.1,-0.1,,1.87
25.457239999999956,0.1,1.1,-0.1,,1.87
25.466969999999947,0.4,0.1,-0.1,,1.69
25.476779999999962,0.4,0.1,-0.1,,1.69
25.48658999999998,0.1,0.8,-0.2,0.8,
25.49640999999997,0.1,0.8,-0.2,,1.32
25.506219999999985,0.7,0.0,0.3,,1.73
25.51603,0.7,0.0,0.3,,1.73
25.52584999999999,0.4,0.0,1.0,,1.91
25.535660000000007,0.4,0.0,1.0,,1.91
25.54546999999991,0.5,-0.1,-0.2,-3.4,
25.555290000000014,0.5,-0.1,-0.2,,1.46
25.565099999999916,0.6,0.4,0.5,,1.05
25.57490999999993,0.6,0.4,0.5,,1.05
25.584639999999922,-0.2,0.2,0.0,,1.96
25.594449999999938,-0.2,0.2,0.0,,1.96
25.60426999999993,-0.3,0.0,-0.1,-4.4,
25.614079999999944,-0.3,0.0,-0.1,-4.4,
25.62388999999996,1.2,0.3,-0.7,,1.0
25.63370999999995,1.2,0.3,-0.7,,1.0
25.643519999999967,1.2,0.3,-0.7,,2.28
25.653329999999983,0.9,-0.2,-0.3,,2.28
25.663149999999973,0.9,-0.2,-0.3,,2.28
25.67295999999999,1.4,0.8,-0.2,3.0,
25.682770000000005,1.4,0.8,-0.2,,1.0
25.692499999999995,-0.2,0.7,0.0,,1.0
25.702319999999986,-0.2,0.7,0.0,3.6,
25.712130000000002,-0.2,-0.7,0.5,,2.28
25.721940000000018,-0.2,-0.7,0.5,,2.28
25.73176000000001,0.2,0.8,-0.1,-0.6,
25.74156999999991,0.2,0.8,-0.1,,0.68
25.751379999999926,-0.3,0.2,0.0,,1.18
25.761199999999917,-0.3,0.2,0.0,-2.0,
25.771009999999933,-0.2,-0.4,-1.4,,1.78
25.78081999999995,-0.2,-0.4,-1.4,,1.78
25.79063999999994,-0.5,-0.3,-0.4,,0.86
25.800449999999955,-0.5,-0.3,-0.4,,0.86
25.810179999999946,-0.3,-0.1,0.3,,1.05
25.81998999999996,-0.3,-0.1,0.3,,1.05
25.829799999999977,0.4,-0.6,1.1,,1.18
25.839619999999968,0.4,-0.6,1.1,,1.18
25.849429999999984,0.4,-0.6,1.1,,1.37
25.85924,0.3,0.5,0.2,,1.37
25.86905999999999,0.3,0.5,0.2,,1.37
25.878870000000006,0.0,0.0,0.1,,1.0
25.88867999999991,0.0,0.0,0.1,5.0,
25.898500000000013,-0.9,-0.9,-0.1,-3.8,
25.908309999999915,-0.9,-0.9,-0.1,,1.96
25.918039999999905,-0.4,0.3,-0.6,,1.0
25.92784999999992,-0.4,0.3,-0.6,,1.0
25.937669999999912,-0.7,0.5,-0.1,,2.28
25.947479999999928,-0.7,0.5,-0.1,,2.28
25.957289999999944,-0.5,-0.3,-0.2,-2.4,
25.967109999999934,-0.5,-0.3,-0.2,,2.1
25.97691999999995,-0.3,0.5,0.1,,2.28
25.986729999999966,-0.3,0.5,0.1,,2.28
25.996549999999957,0.2,0.5,0.0,,1.0
26.006359999999972,0.2,0.5,0.0,,1.0
26.01616999999999,0.0,-0.9,-0.4,,2.28
26.02598999999998,0.0,-0.9,-0.4,-6.6,
26.035799999999995,0.0,-0.9,-0.4,,1.05
26.045529999999985,-0.2,0.0,-0.1,,1.05
26.05534,-0.2,0.0,-0.1,1.6,
26.065150000000017,-1.3,0.2,-0.4,,1.0
26.074970000000008,-1.3,0.2,-0.4,,1.0
26.08477999999991,-0.2,1.1,0.4,-2.4,
26.094589999999926,-0.2,1.1,0.4,,2.28
26.104409999999916,-0.4,0.3,-0.5,,1.05
26.114219999999932,-0.4,0.3,-0.5,-2.6,
26.124029999999948,0.7,-0.2,0.2,,2.1
26.13384999999994,0.7,-0.2,0.2,,2.1
26.143659999999954,-0.2,1.2,0.1,,1.64
26.15346999999997,-0.2,1.2,0.1,,1.64
26.16319999999996,0.5,-0.2,-0.2,,1.73
26.173009999999977,0.5,-0.2,-0.2,-2.0,
26.182829999999967,0.6,-1.5,0.8,,1.96
26.192639999999983,0.6,-1.5,0.8,,1.96
26.20245,0.7,0.5,1.1,,1.78
26.21226999999999,0.7,0.5,1.1,,1.78
26.222080000000005,0.7,0.5,1.1,,2.6
26.231889999999908,0.2,0.1,0.2,,2.6
26.241710000000012,0.2,0.1,0.2,0.4,
26.251519999999914,0.3,-1.3,-0.1,,1.0
26.26132999999993,0.3,-1.3,-0.1,,1.0
26.27114999999992,-0.4,0.3,0.1,,1.96
26.28087999999991,-0.4,0.3,0.1,,1.96
26.290689999999927,0.2,-0.2,0.4,,2.28
26.300499999999943,0.2,-0.2,0.4,,2.28
26.310319999999933,-0.5,0.4,0.4,0.8,
26.32012999999995,-0.5,0.4,0.4,,1.0
26.329939999999965,-0.5,-0.3,1.2,,1.0
26.339759999999956,-0.5,-0.3,1.2,,1.0
26.34956999999997,-0.6,0.2,-0.3,,1.37
26.359379999999987,-0.6,0.2,-0.3,,1.37
26.369199999999978,0.8,-0.1,-0.3,-0.6,
26.379009999999994,0.8,-0.1,-0.3,-0.6,
26.38882000000001,-1.1,0.1,-1.4,,1.0
26.39855,-1.1,0.1,-1.4,,1.0
26.408360000000016,-0.2,0.3,-0.2,,1.05
26.418180000000007,-0.2,0.3,-0.2,,1.05
26.42798999999991,-0.2,0.3,-0.2,-2.0,
26.437799999999925,0.4,0.4,-0.1,-2.0,
26.447619999999915,0.4,0.4,-0.1,,1.0
26.45742999999993,1.4,0.0,1.0,,2.28
26.467239999999947,1.4,0.0,1.0,-6.6,
26.477059999999938,-0.8,1.4,0.5,,2.28
26.486869999999954,-0.8,1.4,0.5,,2.28
26.49667999999997,0.6,-0.1,1.4,3.6,
26.50649999999996,0.6,-0.1,1.4,,1.18
26.51622999999995,0.3,-0.3,0.3,,2.28
26.526039999999966,0.3,-0.3,0.3,-6.6,
26.535849999999982,-0.2,0.7,0.4,,1.96
26.545669999999973,-0.2,0.7,0.4,,1.96
26.55547999999999,0.4,-0.1,0.6,,1.96
26.565290000000005,0.4,-0.1,0.6,,1.96
26.575109999999995,-0.2,0.0,0.6,0.2,
26.58492000000001,-0.2,0.0,0.6,,1.46
26.594729999999913,0.2,-0.5,0.2,0.8,
26.604550000000017,0.2,-0.5,0.2,,1.0
26.61435999999992,1.1,-0.2,0.7,,1.37
26.62408999999991,1.1,-0.2,0.7,,1.37
26.633989999999926,1.1,-0.2,0.7,,1.37
26.643709999999942,-0.1,-0.7,0.4,,1.05
26.653529999999932,-0.1,-0.7,0.4,,1.05
26.66333999999995,-0.4,0.4,-1.1,-2.0,
26.673149999999964,-0.4,0.4,-1.1,,0.68
26.682969999999955,-0.1,1.3,0.1,,1.18
26.69277999999997,-0.1,1.3,0.1,,1.18
26.702589999999987,0.4,-1.6,0.3,,2.28
26.712409999999977,0.4,-1.6,0.3,,2.28
26.722219999999993,0.1,0.6,0.5,3.0,
26.73203000000001,0.1,0.6,0.5,3.0,
26.74185,0.1,0.3,-0.2,,1.27
26.751570000000015,0.1,0.3,-0.2,,1.27
26.761390000000006,-0.3,-0.3,0.2,,0.95
26.771199999999908,-0.3,-0.3,0.2,,0.95
26.781009999999924,-0.4,0.0,0.0,,1.0
26.790829999999914,-0.4,0.0,0.0,-4.4,
26.80063999999993,0.2,0.6,-0.5,,1.55
26.810449999999946,0.2,0.6,-0.5,,1.55
26.820269999999937,0.2,0.6,-0.5,,1.32
26.830079999999953,-0.3,-1.0,-0.3,,1.32
26.83988999999997,-0.3,-1.0,-0.3,,1.32
26.84970999999996,-0.1,0.1,-1.5,,1.37
26.859519999999975,-0.1,0.1,-1.5,,1.37
26.869249999999965,-0.5,0.5,-0.4,,2.6
26.87905999999998,-0.5,0.5,-0.4,,2.6
26.888879999999972,0.2,-0.8,0.2,,1.46
26.898689999999988,0.2,-0.8,0.2,,1.46
26.908500000000004,1.3,0.3,-0.1,,1.18
26.918319999999994,1.3,0.3,-0.1,,1.18
26.92813000000001,0.1,0.6,-0.4,1.4,
26.937939999999912,0.1,0.6,-0.4,,1.37
26.947760000000017,0.3,-0.6,-0.3,,1.37
26.95756999999992,0.3,-0.6,-0.3,2.2,
26.967379999999935,0.4,1.3,-0.5,,1.46
26.977109999999925,0.4,1.3,-0.5,,1.46
26.98691999999994,0.2,0.9,-0.3,,1.14
26.99673999999993,0.2,0.9,-0.3,,1.14
27.006549999999947,0.2,0.9,-0.3,,2.28
27.016359999999963,0.0,-0.2,0.1,0.4,
27.026179999999954,0.0,-0.2,0.1,,2.28
27.03598999999997,0.3,0.1,-0.3,,1.0
27.045799999999986,0.3,0.1,-0.3,,1.0
27.055619999999976,-0.2,0.0,-0.3,,1.37
27.065429999999992,-0.2,0.0,-0.3,,1.37
27.075240000000008,-0.6,-0.6,-0.4,,2.1
27.08497,-0.6,-0.6,-0.4,-6.6,
27.09478999999999,-0.8,-1.0,0.2,,2.28
27.104600000000005,-0.8,-1.0,0.2,,2.28
27.114409999999907,-0.5,0.1,0.0,,1.18
27.12423000000001,-0.5,0.1,0.0,,1.18
27.134039999999914,-1.3,-0.9,-0.2,,2.28
27.14384999999993,-1.3,-0.9,-0.2,-6.6,
27.15366999999992,-0.3,-0.9,0.1,,2.1
27.163479999999936,-0.3,-0.9,0.1,,2.1
27.17328999999995,0.4,0.2,0.3,,1.32
27.183109999999942,0.4,0.2,0.3,,1.32
27.19291999999996,0.2,-0.2,0.2,,1.78
27.202729999999974,0.2,-0.2,0.2,,1.78
27.212549999999965,0.2,-0.2,0.2,,2.28
27.22226999999998,-0.2,-1.1,0.4,,2.28
27.23208999999997,-0.2,-1.1,0.4,-3.8,
27.241899999999987,0.8,-0.2,-0.3,,0.73
27.251710000000003,0.8,-0.2,-0.3,,0.73
27.261529999999993,-1.4,-0.8,0.1,,1.96
27.27134000000001,-1.4,-0.8,0.1,,1.96
27.28114999999991,-0.3,-0.7,0.1,,1.96
27.290970000000016,-0.3,-0.7,0.1,,1.96
27.300779999999918,0.4,0.3,-0.2,,1.05
27.310589999999934,0.4,0.3,-0.2,,1.05
27.320409999999924,-0.4,-0.5,0.5,,1.91
27.33012999999994,-0.4,-0.5,0.5,,1.91
27.33994999999993,0.1,-0.2,-1.0,0.2,
27.349759999999947,0.1,-0.2,-1.0,,1.37
27.359569999999962,-0.3,-0.5,-0.2,,1.0
27.369389999999953,-0.3,-0.5,-0.2,2.2,
27.37919999999997,-1.4,-0.8,-0.3,,1.46
27.389009999999985,-1.4,-0.8,-0.3,,1.46
27.398829999999975,-1.4,-0.8,-0.3,3.6,
27.40863999999999,-0.4,-0.3,-0.6,,1.32
27.418450000000007,-0.4,-0.3,-0.6,,1.32
27.428269999999998,-0.4,0.1,-0.5,3.0,
27.438080000000014,-0.4,0.1,-0.5,,1.18
27.447889999999916,0.6,0.1,0.4,,1.0
27.457619999999906,0.6,0.1,0.4,,1.0
27.46744000000001,-0.7,-0.7,-0.2,,1.0
27.477249999999913,-0.7,-0.7,-0.2,,1.0
27.48705999999993,0.4,-0.2,1.5,0.8,
27.49687999999992,0.4,-0.2,1.5,0.8,
27.506689999999935,0.4,-0.3,0.4,,1.73
27.51649999999995,0.4,-0.3,0.4,,1.73
27.52631999999994,-0.3,0.0,-0.1,,1.46
27.536129999999957,-0.3,0.0,-0.1,,1.46
27.545939999999973,0.9,0.5,-0.2,,1.5
27.555759999999964,0.9,0.5,-0.2,-5.2,
27.56556999999998,0.1,0.8,0.0,,1.0
27.575379999999996,0.1,0.8,0.0,,1.0
27.585199999999986,0.6,0.1,1.1,3.6,
27.594920000000002,0.6,0.1,1.1,,0.54
27.604739999999993,0.6,0.1,1.1,,1.78
27.61455000000001,0.2,0.1,0.0,,1.78
27.62435999999991,0.2,0.1,0.0,,1.78
27.634180000000015,0.5,0.0,0.1,,1.0
27.643989999999917,0.5,0.0,0.1,3.6,
27.653799999999933,-1.1,0.1,1.4,,2.28
27.663619999999923,-1.1,0.1,1.4,,2.28
27.67342999999994,0.5,-0.1,0.1,,1.0
27.683239999999955,0.5,-0.1,0.1,,1.0
27.693059999999946,0.8,0.0,-0.6,,1.0
27.70286999999996,0.8,0.0,-0.6,,1.0
27.712599999999952,-0.5,0.3,0.0,,0.68
27.722409999999968,-0.5,0.3,0.0,,0.68
27.73222999999996,0.5,0.4,-0.2,,2.28
27.742039999999974,0.5,0.4,-0.2,,2.28
27.75184999999999,0.6,-0.4,0.3,0.2,
27.76166999999998,0.6,-0.4,0.3,,1.32
27.771479999999997,-0.6,0.2,0.0,1.6,
27.781290000000013,-0.6,0.2,0.0,,1.05
27.791110000000003,-0.6,0.2,0.0,,1.0
27.800919999999905,0.0,0.5,-0.5,,1.0
27.81072999999992,0.0,0.5,-0.5,,1.0
27.820549999999912,-0.2,0.2,1.5,,1.32
27.830359999999928,-0.2,0.2,1.5,,1.32
27.84008999999992,0.2,-0.2,0.1,,1.37
27.849899999999934,0.2,-0.2,0.1,2.8,
27.85970999999995,0.4,0.3,0.2,,2.28
27.86952999999994,0.4,0.3,0.2,,2.28
27.879339999999956,0.4,0.5,-1.4,,1.0
27.889149999999972,0.4,0.5,-1.4,,1.0
27.898969999999963,-0.3,0.4,0.4,,0.95
27.90877999999998,-0.3,0.4,0.4,-2.2,
27.918589999999995,-0.8,0.2,-0.2,,2.6
27.928409999999985,-0.8,0.2,-0.2,,2.6
27.93822,0.6,0.2,0.0,,1.0
27.948030000000017,0.6,0.2,0.0,,1.0
27.957760000000007,-0.4,1.2,0.2,,1.46
27.96756999999991,-0.4,1.2,0.2,-1.8,
27.977390000000014,0.1,1.0,-0.7,,1.18
27.987199999999916,0.1,1.0,-0.7,,1.18
27.997009999999932,0.1,1.0,-0.7,,1.27
28.006829999999923,0.4,0.6,0.1,,1.27
28.01663999999994,0.4,0.6,0.1,,1.27
28.026449999999954,0.0,0.2,-0.4,,0.73
28.036269999999945,0.0,0.2,-0.4,,0.73
28.04607999999996,0.2,0.9,0.6,,1.59
28.055889999999977,0.2,0.9,0.6,,1.59
28.065709999999967,0.1,0.0,0.2,,1.18
28.075519999999983,0.1,0.0,0.2,,1.18
28.085249999999974,-0.7,0.0,0.0,,2.1
28.09505999999999,-0.7,0.0,0.0,,2.1
28.10487999999998,0.5,-0.4,-1.5,3.6,
28.114689999999996,0.5,-0.4,-1.5,,1.0
28.124500000000012,0.3,-1.4,0.7,,1.0
28.134320000000002,0.3,-1.4,0.7,,1.0
28.144129999999905,0.3,-0.3,0.5,,1.69
28.15393999999992,0.3,-0.3,0.5,,1.69
28.16375999999991,-0.4,-0.2,0.1,,0.86
28.173569999999927,-0.4,-0.2,0.1,,0.86
28.183379999999943,-0.4,-0.2,0.1,,1.96
28.193109999999933,-0.2,-1.3,1.0,,1.96
28.20291999999995,-0.2,-1.3,1.0,,1.96
28.21273999999994,-0.2,-0.1,0.7,,1.69
28.222549999999956,-0.2,-0.1,0.7,,1.69
28.23235999999997,-0.2,0.2,-0.4,,1.0
28.242179999999962,-0.2,0.2,-0.4,,1.0
28.251989999999978,-0.7,-1.3,0.9,,1.18
28.261799999999994,-0.7,-1.3,0.9,-2.0,
28.271619999999984,0.7,-0.3,-0.9,,2.1
28.28143,0.7,-0.3,-0.9,,2.1
28.291240000000016,0.2,0.3,0.2,,1.0
28.301060000000007,0.2,0.3,0.2,,1.0
28.31086999999991,-0.2,-1.4,0.3,,1.5
28.320600000000013,-0.2,-1.4,0.3,-6.0,
28.330409999999915,-0.2,-0.8,0.2,,2.28
28.340229999999906,-0.2,-0.8,0.2,,2.28
28.35003999999992,0.3,0.9,0.2,,1.0
28.359849999999938,0.3,0.9,0.2,,1.0
28.369669999999928,0.2,-0.2,0.1,,2.33
28.379479999999944,0.2,-0.2,0.1,-4.0,
28.38928999999996,0.2,-0.2,0.1,,1.37
28.39910999999995,-0.8,-0.1,-0.1,,1.37
28.408919999999966,-0.8,-0.1,-0.1,-1.2,
28.418729999999982,0.0,-1.5,-0.2,,1.18
28.428549999999973,0.0,-1.5,-0.2,,1.18
28.43835999999999,0.5,-0.8,-0.3,,2.28
28.44808999999998,0.5,-0.8,-0.3,,2.28
28.457899999999995,-0.3,0.1,-0.2,,1.96
28.46771000000001,-0.3,0.1,-0.2,,1.96
28.47753,0.3,-1.3,0.0,,2.28
28.487340000000017,0.3,-1.3,0.0,,2.28
28.49714999999992,-0.5,-0.1,-1.4,,0.86
28.50696999999991,-0.5,-0.1,-1.4,,0.86
28.516779999999926,-0.5,0.0,0.1,-3.4,
28.526589999999942,-0.5,0.0,0.1,,1.0
28.536409999999933,0.6,0.5,-0.4,,1.09
28.54621999999995,0.6,0.5,-0.4,,1.09
28.556029999999964,-0.7,0.2,0.3,,1.27
28.565759999999955,-0.7,0.2,0.3,,1.27
28.57556999999997,-0.7,0.2,0.3,-3.8,
28.58538999999996,-0.8,-1.2,-0.4,,2.28
28.595199999999977,-0.8,-1.2,-0.4,,2.28
28.605009999999993,0.2,0.5,0.0,,1.0
28.614829999999984,0.2,0.5,0.0,,1.0
28.62464,1.3,0.2,-0.1,,1.0
28.634450000000015,1.3,0.2,-0.1,,1.0
28.644270000000006,-1.0,-0.9,0.2,,1.0
28.654079999999908,-1.0,-0.9,0.2,,1.0
28.663889999999924,0.2,-0.2,1.5,,1.0
28.673709999999915,0.2,-0.2,1.5,5.0,
28.68351999999993,1.5,-0.2,-0.3,,1.96
28.69324999999992,1.5,-0.2,-0.3,,1.96
28.703059999999937,0.1,1.5,-0.2,,1.05
28.712879999999927,0.1,1.5,-0.2,,1.05
28.722689999999943,-0.2,0.0,1.0,,0.86
28.73249999999996,-0.2,0.0,1.0,-6.4,
28.74231999999995,0.6,-0.5,0.1,,1.0
28.752129999999966,0.6,-0.5,0.1,,1.0
28.76193999999998,-0.5,-0.6,-0.7,-3.8,
28.771759999999972,-0.5,-0.6,-0.7,,2.28
28.781569999999988,-0.5,-0.6,-0.7,-5.4,
28.791380000000004,-0.2,-0.3,-0.2,-5.4,
28.801199999999994,-0.2,-0.3,-0.2,,1.78
28.81092000000001,1.0,0.3,-0.1,,0.68
28.82074,1.0,0.3,-0.1,-2.0,
28.830550000000017,0.2,0.3,-0.6,,1.18
28.84035999999992,0.2,0.3,-0.6,,1.18
28.85017999999991,0.5,0.2,0.1,,1.0
28.859989999999925,0.5,0.2,0.1,5.0,
28.86979999999994,0.6,1.3,-0.1,,1.0
28.87961999999993,0.6,1.3,-0.1,,1.0
28.889429999999948,-0.8,0.0,0.7,,1.09
28.899239999999963,-0.8,0.0,0.7,,1.09
28.909059999999954,-0.3,-0.2,0.3,,1.0
28.918789999999944,-0.3,-0.2,0.3,-0.6,
28.92859999999996,0.9,1.5,0.1,5.0,
28.938409999999976,0.9,1.5,0.1,,1.0
28.948229999999967,1.1,0.9,-0.3,0.4,
28.958039999999983,1.1,0.9,-0.3,,2.28
28.96785,1.1,0.9,-0.3,,1.96
28.97766999999999,0.4,0.0,0.1,,1.96
28.987480000000005,0.4,0.0,0.1,,1.96
28.997289999999907,0.8,-0.1,-0.8,,2.42
29.00711000000001,0.8,-0.1,-0.8,,2.42
29.016919999999914,-1.6,1.0,0.0,,1.0
29.02672999999993,-1.6,1.0,0.0,,1.0
29.03654999999992,0.0,0.1,0.7,,2.28
29.046269999999936,0.0,0.1,0.7,,2.28
29.056169999999952,0.2,0.4,0.8,,1.46
29.065899999999942,0.2,0.4,0.8,,1.46
29.075709999999958,0.5,-0.3,0.7,,1.78
29.08552999999995,0.5,-0.3,0.7,-3.4,
29.095339999999965,-0.1,0.4,0.4,,1.37
29.10514999999998,-0.1,0.4,0.4,,1.37
29.11496999999997,0.3,0.2,-0.2,,2.28
29.124779999999987,0.3,0.2,-0.2,,2.28
29.134590000000003,0.1,0.3,-0.4,,1.55
29.144409999999993,0.1,0.3,-0.4,-1.0,
29.15422000000001,-0.3,0.5,0.1,,1.37
29.16402999999991,-0.3,0.5,0.1,,1.37
29.173760000000016,-0.3,0.5,0.1,,1.18
29.183569999999918,-1.5,0.3,0.1,,1.18
29.19338999999991,-1.5,0.3,0.1,,1.18
29.203199999999924,0.0,-1.6,-0.3,,1.37
29.21300999999994,0.0,-1.6,-0.3,0.8,
29.22282999999993,0.5,1.1,0.3,,1.46
29.232639999999947,0.5,1.1,0.3,,1.46
29.242449999999963,0.4,0.6,0.7,,1.32
29.252269999999953,0.4,0.6,0.7,,1.32
29.26207999999997,0.2,-0.2,0.0,,1.59
29.271889999999985,0.2,-0.2,0.0,1.2,
29.281709999999975,1.2,0.2,0.3,,1.32
29.291439999999966,1.2,0.2,0.3,,1.32
29.301249999999982,-0.2,0.6,0.5,,1.37
29.311059999999998,-0.2,0.6,0.5,,1.37
29.32087999999999,-0.3,-0.7,0.5,,1.46
29.330690000000004,-0.3,-0.7,0.5,,1.46
29.340499999999906,-0.3,0.2,-0.5,,1.59
29.35032000000001,-0.3,0.2,-0.5,,1.59
29.360129999999913,-0.3,0.2,-0.5,,1.0
29.36993999999993,0.0,-1.6,0.6,,1.0
29.37975999999992,0.0,-1.6,0.6,,1.0
29.389569999999935,0.1,-0.1,0.4,,1.32
29.39937999999995,0.1,-0.1,0.4,,1.32
29.40919999999994,0.4,0.3,-0.6,,1.18
29.418919999999957,0.4,0.3,-0.6,,1.18
29.428739999999948,0.5,-1.4,0.0,,1.78
29.438549999999964,0.5,-1.4,0.0,,1.78
29.44835999999998,-0.4,-0.4,-0.8,,1.69
29.45817999999997,-0.4,-0.4,-0.8,,1.69
29.467989999999986,0.0,0.2,0.2,,0.45
29.477800000000002,0.0,0.2,0.2,,0.45
29.487619999999993,0.1,-0.9,-0.4,,2.33
29.49743000000001,0.1,-0.9,-0.4,-2.0,
29.50723999999991,-0.4,-0.9,-0.3,,1.0
29.517060000000015,-0.4,-0.9,-0.3,,1.0
29.526869999999917,0.5,0.2,0.4,,1.05
29.536679999999933,0.5,0.2,0.4,,1.05
29.546409999999923,-1.2,-0.2,-0.3,,0.68
29.556229999999914,-1.2,-0.2,-0.3,-2.0,
29.56603999999993,-1.2,-0.2,-0.3,,0.68
29.575849999999946,-0.7,-0.5,-0.2,,0.86
29.585669999999936,-0.7,-0.5,-0.2,0.8,
29.595479999999952,1.5,-0.2,-0.2,,1.0
29.605289999999968,1.5,-0.2,-0.2,,1.0
29.61510999999996,-0.2,0.1,-0.9,,1.0
29.624919999999975,-0.2,0.1,-0.9,5.0,
29.63472999999999,-0.8,0.2,-0.2,,1.0
29.64454999999998,-0.8,0.2,-0.2,,1.0
29.654359999999997,1.2,-0.1,-1.3,,1.27
29.664170000000013,1.2,-0.1,-1.3,,1.27
29.673900000000003,0.5,0.1,0.0,,1.0
29.683709999999905,0.5,0.1,0.0,-2.0,
29.69353000000001,-0.7,0.1,-0.4,-0.6,
29.703339999999912,-0.7,0.1,-0.4,,1.0
29.713149999999928,0.2,0.7,-0.1,,1.0
29.72296999999992,0.2,0.7,-0.1,,1.0
29.732779999999934,0.1,0.0,-0.2,,2.28
29.74258999999995,0.1,0.0,-0.2,,2.28
29.75240999999994,0.1,0.0,-0.2,,2.1
29.762219999999957,-0.6,1.3,-0.1,,2.1
29.772029999999972,-0.6,1.3,-0.1,,2.1
29.781759999999963,0.4,-0.4,0.4,,1.0
29.79156999999998,0.4,-0.4,0.4,,1.0
29.80138999999997,0.4,0.1,-0.8,,1.41
29.811199999999985,0.4,0.1,-0.8,,1.41
29.82101,-0.3,0.2,0.3,,1.05
29.83082999999999,-0.3,0.2,0.3,,1.05
29.840640000000008,0.6,-1.2,0.1,,1.78
29.85044999999991,0.6,-1.2,0.1,,1.78
29.860270000000014,0.5,-0.1,0.1,,1.73
29.870079999999916,0.5,-0.1,0.1,,1.73
29.879889999999932,1.2,0.9,0.1,1.2,
29.889709999999923,1.2,0.9,0.1,,1.27
29.89951999999994,0.8,-0.2,-0.4,,1.69
29.90924999999993,0.8,-0.2,-0.4,0.0,
29.919059999999945,0.9,0.4,-1.5,,2.28
29.928879999999936,0.9,0.4,-1.5,,2.28
29.93868999999995,-0.5,-0.5,-0.5,,1.05
29.948499999999967,-0.5,-0.5,-0.5,,1.05
29.958319999999958,-0.5,-0.5,-0.5,0.8,
29.968129999999974,0.4,0.0,0.2,0.8,
29.97793999999999,0.4,0.0,0.2,,1.0
29.98775999999998,-1.6,0.4,0.2,,1.0
29.997569999999996,-1.6,0.4,0.2,,1.0
30.007380000000012,-0.1,0.0,0.6,,1.59
30.017200000000003,-0.1,0.0,0.6,,1.59
30.026919999999905,-0.3,0.2,-0.1,1.6,
30.03674000000001,-0.3,0.2,-0.1,1.6,
30.04654999999991,0.2,0.5,0.0,,1.59
30.056359999999927,0.2,0.5,0.0,,1.59
30.066179999999918,0.3,1.2,-0.1,,1.0
30.075989999999933,0.3,1.2,-0.1,,1.0
30.08579999999995,-0.3,0.7,0.3,,1.69
30.09561999999994,-0.3,0.7,0.3,0.0,
30.105429999999956,-0.1,0.8,0.1,,2.28
30.11523999999997,-0.1,0.8,0.1,,2.28
30.125059999999962,-0.4,1.0,-0.6,0.8,
30.134869999999978,-0.4,1.0,-0.6,,1.78
30.14459999999997,-0.4,1.0,-0.6,,1.41
30.154409999999984,0.2,0.8,-0.2,,1.41
30.164229999999975,0.2,0.8,-0.2,,1.41
30.17403999999999,-0.2,-1.5,0.0,,1.09
30.183850000000007,-0.2,-1.5,0.0,-1.6,
30.193669999999997,0.1,0.6,-0.1,,1.37
30.203480000000013,0.1,0.6,-0.1,,1.37
30.213289999999915,-0.2,0.0,-0.5,,2.1
30.223109999999906,-0.2,0.0,-0.5,,2.1
30.232919999999922,0.1,-1.2,-0.2,-4.0,
30.242729999999938,0.1,-1.2,-0.2,,1.05
30.25254999999993,0.0,0.4,-0.9,,1.18
30.262359999999944,0.0,0.4,-0.9,,1.18
30.27216999999996,0.0,0.6,-0.8,,1.0
30.28189999999995,0.0,0.6,-0.8,,1.0
30.291709999999966,0.4,-0.4,0.4,-2.0,
30.301529999999957,0.4,-0.4,0.4,,1.0
30.311339999999973,-1.3,-1.1,0.5,,1.96
30.32114999999999,-1.3,-1.1,0.5,-3.8,
30.33096999999998,-1.3,-1.1,0.5,,1.0
30.340779999999995,0.2,0.0,0.2,,1.0
30.35059000000001,0.2,0.0,0.2,,1.0
30.36041,0.2,-0.7,0.2,,1.37
30.370220000000018,0.2,-0.7,0.2,,1.37
30.38002999999992,0.0,-0.2,-0.1,-3.4,
30.38984999999991,0.0,-0.2,-0.1,-3.4,
30.399659999999926,-0.2,-1.2,-0.1,,1.0
30.409389999999917,-0.2,-1.2,-0.1,,1.0
30.419199999999933,0.2,-1.2,-1.5,,1.32
30.42900999999995,0.2,-1.2,-1.5,,1.32
30.43882999999994,-0.4,-0.6,-0.1,,1.41
30.448639999999955,-0.4,-0.6,-0.1,3.0,
30.45844999999997,-0.3,0.5,-0.5,,1.27
30.46826999999996,-0.3,0.5,-0.5,,1.27
30.478079999999977,-0.9,-0.9,-1.3,,1.96
30.487889999999993,-0.9,-0.9,-1.3,,1.96
30.497709999999984,-0.5,-0.8,0.6,,1.05
30.50752,-0.5,-0.8,0.6,1.6,
30.517330000000015,0.1,-0.3,0.3,,1.96
30.527060000000006,0.1,-0.3,0.3,,1.96
30.536879999999996,0.1,-0.3,0.3,,1.09
30.546690000000012,-1.2,-0.8,-1.3,,1.09
30.556499999999915,-1.2,-0.8,-1.3,,1.09
30.566319999999905,-0.7,-0.6,-0.3,,1.18
30.57612999999992,-0.7,-0.6,-0.3,,1.18
30.585939999999937,0.4,-0.6,0.5,,1.37
30.595759999999927,0.4,-0.6,0.5,,1.37
30.605569999999943,-0.4,-0.8,-0.3,,0.68
30.61537999999996,-0.4,-0.8,-0.3,,0.68
30.62519999999995,-0.6,1.0,0.0,,1.14
30.635009999999966,-0.6,1.0,0.0,,1.14
30.644739999999956,0.1,0.0,0.0,-2.4,
30.654549999999972,0.1,0.0,0.0,,2.28
30.664359999999988,0.8,-0.2,0.4,,1.32
30.67417999999998,0.8,-0.2,0.4,0.8,
30.683989999999994,-0.4,0.1,-0.6,,1.32
30.69380000000001,-0.4,0.1,-0.6,,1.32
30.70362,1.3,0.2,0.3,,1.96
30.713430000000017,1.3,0.2,0.3,,1.96
30.72323999999992,1.3,0.2,0.3,,1.69
30.73305999999991,0.6,-1.4,0.6,2.2,
30.742869999999925,0.6,-1.4,0.6,,1.69
30.752599999999916,-0.4,-0.2,0.2,,1.18
30.76240999999993,-0.4,-0.2,0.2,,1.18
30.772229999999922,0.0,0.4,-0.2,,1.37
30.782039999999938,0.0,0.4,-0.2,,1.37
30.791849999999954,0.0,-1.3,-0.2,,1.69
30.801669999999945,0.0,-1.3,-0.2,-4.8,
30.81147999999996,-0.7,0.5,0.3,,1.0
30.821289999999976,-0.7,0.5,0.3,,1.0
30.831109999999967,0.3,0.1,-0.1,,1.5
30.840919999999983,0.3,0.1,-0.1,,1.5
30.85073,0.2,0.2,0.5,,1.32
30.86054999999999,0.2,0.2,0.5,2.2,
30.870360000000005,-0.3,0.4,-1.4,2.2,
30.880169999999907,-0.3,0.4,-1.4,,1.05
30.88999000000001,0.3,0.0,-0.1,,1.05
30.899709999999914,0.3,0.0,-0.1,,1.05
30.909529999999904,-0.2,0.0,-0.3,,1.0
30.91933999999992,-0.2,0.0,-0.3,,1.0
30.929149999999936,-0.2,0.0,-0.3,-1.2,
30.938969999999927,1.3,-0.2,1.2,-1.2,
30.948779999999942,1.3,-0.2,1.2,,1.0
30.95858999999996,0.2,0.3,-0.4,,2.6
30.96840999999995,0.2,0.3,-0.4,,2.6
30.978219999999965,0.0,0.3,0.1,,1.46
30.98802999999998,0.0,0.3,0.1,,1.46
30.99784999999997,-0.2,-0.1,-1.2,2.2,
31.007659999999987,-0.2,-0.1,-1.2,,1.0
31.017389999999978,-0.8,0.1,0.0,,1.05
31.027199999999993,-0.8,0.1,0.0,2.2,
31.03701000000001,0.3,0.0,-0.5,,1.46
31.04683,0.3,0.0,-0.5,,1.46
31.056640000000016,0.8,0.2,1.5,-4.4,
31.066449999999918,0.8,0.2,1.5,,1.27
31.07626999999991,-0.1,0.0,-0.1,,1.96
31.086079999999924,-0.1,0.0,-0.1,0.4,
31.09588999999994,0.9,-0.1,0.0,-6.6,
31.10570999999993,0.9,-0.1,0.0,,1.96
31.115519999999947,0.9,-0.1,0.0,-1.6,
31.125329999999963,1.3,0.3,-0.4,,1.59
31.135149999999953,1.3,0.3,-0.4,,1.59
31.144879999999944,-0.1,0.4,-0.3,,1.0
31.15468999999996,-0.1,0.4,-0.3,0.2,
31.164499999999975,0.4,0.3,-0.7,,1.73
31.174319999999966,0.4,0.3,-0.7,,1.73
31.184129999999982,1.2,0.3,-0.3,,1.55
31.193939999999998,1.2,0.3,-0.3,,1.55
31.20375999999999,-0.4,0.2,-0.1,,2.28
31.213570000000004,-0.4,0.2,-0.1,,2.28
31.223379999999906,0.3,0.3,-0.2,2.2,
31.23320000000001,0.3,0.3,-0.2,,1.14
31.243009999999913,1.3,0.9,-0.3,,1.37
31.25281999999993,1.3,0.9,-0.3,,1.37
31.26263999999992,0.3,0.0,-0.4,,1.0
31.272359999999935,0.3,0.0,-0.4,,1.0
31.282179999999926,0.1,-0.1,1.4,-5.2,
31.29198999999994,0.1,-0.1,1.4,,2.28
31.301799999999957,0.1,-0.1,0.5,,1.18
31.311619999999948,0.1,-0.1,0.5,,1.18
31.321429999999964,0.1,-0.1,0.5,,1.41
31.33123999999998,0.2,-0.2,-0.2,,1.41
31.34105999999997,0.2,-0.2,-0.2,,1.41
31.350869999999986,0.6,-0.2,0.2,-2.0,
31.360680000000002,0.6,-0.2,0.2,,1.0
31.370499999999993,0.7,-0.2,0.1,,1.37
31.38031000000001,0.7,-0.2,0.1,1.6,
31.39011999999991,0.4,0.5,1.5,,1.0
