time,accel_x,accel_y,accel_z,accel_uni,strain
0.0,1.5,-0.1,-0.6,,0.36
0.009809999999902175,1.5,-0.1,-0.6,5.0,
0.019619999999918036,0.1,0.2,0.4,,1.27
0.02943999999990865,0.1,0.2,0.4,,1.27
0.03924999999992451,0.6,-0.2,-0.1,,1.0
0.049059999999940374,0.6,-0.2,-0.1,,1.0
0.05887999999993099,1.4,0.0,0.3,,0.36
0.06868999999994685,1.4,0.0,0.3,-0.6,
0.07849999999996271,0.2,-1.3,0.0,,1.96
0.08822999999995318,0.2,-1.3,0.0,,1.96
0.0980499999999438,-1.4,-0.7,1.0,,1.09
0.10785999999995965,-1.4,-0.7,1.0,,1.09
0.11766999999997552,0.2,1.2,0.0,5.0,
0.12748999999996613,0.2,1.2,0.0,,0.36
0.137299999999982,0.1,0.3,0.3,3.6,
0.14710999999999785,0.1,0.3,0.3,,0.68
0.15692999999998847,-0.7,-0.8,-0.1,,1.91
0.16673999999989064,-0.7,-0.8,-0.1,,1.91
0.1765499999999065,-0.7,-0.8,-0.1,,1.46
0.18636999999989712,0.3,0.1,-0.4,,1.46
0.19608999999991283,0.3,0.1,-0.4,,1.46
0.20590999999990345,0.5,0.3,-0.2,3.0,
0.2157199999999193,0.5,0.3,-0.2,,0.36
0.22552999999993517,-0.9,-0.3,-0.7,,0.68
0.23534999999992579,-0.9,-0.3,-0.7,-4.0,
0.24515999999994165,0.3,-0.4,1.5,,0.54
0.2549699999999575,0.3,-0.4,1.5,,0.54
0.2647899999999481,1.1,-0.7,0.1,-4.4,
0.274599999999964,1.1,-0.7,0.1,,0.5
0.28440999999997985,-0.5,0.5,0.0,,0.54
0.29422999999997046,-0.5,0.5,0.0,-1.2,
0.3040399999999863,0.5,-0.3,0.2,,1.32
0.3138499999998885,0.5,-0.3,0.2,,1.32
0.32357999999999265,0.6,1.3,-0.1,,1.14
0.33339999999998327,0.6,1.3,-0.1,,1.14
0.3432099999999991,-0.5,0.6,-0.3,,0.95
0.3530199999999013,-0.5,0.6,-0.3,,0.95
0.3628399999998919,-0.5,0.6,-0.3,,0.41
0.3726499999999078,0.3,0.1,0.5,,0.41
0.38245999999992364,0.3,0.1,0.5,,0.41
0.39227999999991425,0.0,1.5,0.2,,1.09
0.4020899999999301,0.0,1.5,0.2,,1.09
0.411899999999946,0.9,0.1,-0.1,,1.78
0.4217199999999366,0.9,0.1,-0.1,-6.0,
0.4314399999999523,-0.3,0.0,-0.1,,0.41
0.4412599999999429,-0.3,0.0,-0.1,,0.41
0.4510699999999588,0.1,0.3,-1.5,,1.96
0.46087999999997464,0.1,0.3,-1.5,,1.96
0.47069999999996526,-0.4,0.2,0.3,,0.68
0.4805099999999811,-0.4,0.2,0.3,,0.68
0.490319999999997,0.5,1.0,-0.6,,0.36
0.5001399999999876,0.5,1.0,-0.6,,0.36
0.5099499999998898,0.2,0.6,-0.1,,0.73
0.5197599999999056,0.2,0.6,-0.1,,0.73
0.5295799999998962,0.2,-1.1,-0.4,,0.73
0.5393899999999121,0.2,-1.1,-0.4,,0.73
0.549199999999928,0.2,-1.1,-0.4,,1.18
0.5589299999999184,0.7,-0.5,-1.4,0.2,
0.5687399999999343,0.7,-0.5,-1.4,,1.09
0.5785599999999249,-0.2,-0.1,0.5,,1.09
0.5883699999999408,-0.2,-0.1,0.5,,1.09
0.5981799999999566,-0.5,1.1,-0.1,,0.63
0.6079999999999472,-0.5,1.1,-0.1,,0.63
0.6178099999999631,0.0,0.5,-0.7,-2.0,
0.627619999999979,0.0,0.5,-0.7,,1.09
0.6374399999999696,0.4,-0.4,0.4,,1.46
0.6472499999999854,0.4,-0.4,0.4,-6.6,
0.6570599999998876,-0.3,0.4,-0.2,,1.32
0.6668799999999919,-0.3,0.4,-0.2,,1.32
0.6766099999999824,-0.8,-0.1,-0.1,-3.4,
0.6864199999999983,-0.8,-0.1,-0.1,,0.54
0.6962299999999004,-0.3,-0.3,0.4,,1.09
0.706049999999891,-0.3,-0.3,0.4,-4.4,
0.7158599999999069,0.1,-0.1,0.5,,1.14
0.7256699999999228,0.1,-0.1,0.5,,1.14
0.7354899999999134,-0.1,1.4,-1.0,,0.73
0.7452999999999292,-0.1,1.4,-1.0,-0.6,
0.7551099999999451,-0.1,1.4,-1.0,,1.78
0.7649299999999357,0.4,-1.6,0.5,,1.78
0.7747399999999516,0.4,-1.6,0.5,0.4,
0.7845499999999674,-0.7,0.6,1.3,,1.37
0.7942799999999579,-0.7,0.6,1.3,,1.37
0.8040899999999738,0.5,1.0,-0.4,-3.8,
0.8139099999999644,0.5,1.0,-0.4,,1.64
0.8237199999999802,-0.3,-0.7,-0.1,,1.64
0.8335299999999961,-0.3,-0.7,-0.1,-3.8,
0.8433499999999867,-0.7,0.6,0.0,,1.0
0.8531599999998889,-0.7,0.6,0.0,,1.0
0.8629699999999048,0.0,-0.3,-0.1,,1.0
0.8727899999998954,0.0,-0.3,-0.1,,1.0
0.8825999999999112,0.1,-0.4,1.5,3.6,
0.8924099999999271,0.1,-0.4,1.5,,0.36
0.9022299999999177,-0.9,-0.5,-0.2,,0.54
0.9120399999999336,-0.9,-0.5,-0.2,,0.54
0.9218499999999494,0.0,0.1,0.5,,0.68
0.9315799999999399,0.0,0.1,0.5,,0.68
0.9413999999999305,-0.8,-0.3,-1.5,,0.68
0.9512099999999464,-0.8,-0.3,-1.5,,0.68
0.9610199999999622,-0.8,-0.3,-1.5,,0.68
0.9708399999999529,-0.6,-0.5,-0.7,-1.2,
0.9806499999999687,-0.6,-0.5,-0.7,,0.91
0.9904599999999846,0.8,-0.1,0.1,,0.22
1.0002799999999752,0.8,-0.1,0.1,4.2,
1.010089999999991,-0.6,0.0,0.5,,0.36
1.0198999999998932,-0.6,0.0,0.5,,0.36
1.0296299999999974,-0.9,0.8,-0.1,-6.6,
1.0394399999998996,-0.9,0.8,-0.1,-6.6,
1.0492599999998902,0.4,0.0,-0.1,,1.0
1.059069999999906,0.4,0.0,-0.1,0.2,
1.068879999999922,-0.8,-0.8,0.1,,0.59
1.0786999999999125,-0.8,-0.8,0.1,,0.59
1.0885099999999284,-0.3,-0.2,-0.1,,1.27
1.0983199999999442,-0.3,-0.2,-0.1,-2.6,
1.1081399999999348,0.0,0.1,0.2,,0.54
1.1179499999999507,0.0,0.1,0.2,,0.54
1.1277599999999666,-0.3,-0.6,0.1,-5.2,
1.1375799999999572,-0.3,-0.6,0.1,,0.86
1.147389999999973,-0.3,-0.6,0.1,,0.54
1.157199999999989,0.2,0.4,0.6,,0.54
1.1669299999999794,0.2,0.4,0.6,,0.54
1.1767399999999952,0.5,0.3,0.4,,0.36
1.1865599999999858,0.5,0.3,0.4,-2.0,
1.196369999999888,0.0,-0.6,-0.1,,1.46
1.2061799999999039,0.0,-0.6,-0.1,,1.46
1.2159999999998945,-0.3,-0.2,-0.1,,1.46
1.2258099999999104,-0.3,-0.2,-0.1,,1.46
1.2356199999999262,-0.3,-0.6,0.5,-3.4,
1.2454399999999168,-0.3,-0.6,0.5,,1.27
1.2552499999999327,-0.5,0.2,-0.2,,0.68
1.2650599999999486,-0.5,0.2,-0.2,,0.68
1.2748799999999392,-0.7,-0.2,0.2,,1.96
1.2846099999999296,-0.7,-0.2,0.2,,1.96
1.2944199999999455,-0.2,0.2,-0.5,-6.6,
1.3042299999999614,-0.2,0.2,-0.5,,1.64
1.314049999999952,0.9,-0.1,0.1,,1.09
1.3238599999999678,0.9,-0.1,0.1,0.8,
1.3336699999999837,0.9,-0.1,0.1,,1.64
1.3434899999999743,0.1,0.5,0.2,,1.64
1.3532999999999902,0.1,0.5,0.2,,1.64
1.3631099999998924,0.6,0.5,0.0,,1.64
1.3729299999999967,0.6,0.5,0.0,,1.64
1.3827399999998988,-0.9,-0.4,0.5,0.4,
1.3924699999998893,-0.9,-0.4,0.5,0.4,
1.4022799999999052,0.4,0.1,0.0,,0.77
1.4121799999999212,0.4,0.1,0.0,,0.77
1.4219099999999116,0.2,-0.3,1.5,,1.64
1.4317199999999275,0.2,-0.3,1.5,,1.64
1.4415299999999434,0.6,0.3,0.2,,1.64
1.451349999999934,0.6,0.3,0.2,0.0,
1.4611599999999498,0.5,0.5,0.0,,0.36
1.4709699999999657,0.5,0.5,0.0,,0.36
1.4807899999999563,0.5,-0.5,0.3,,0.68
1.4905999999999722,0.5,-0.5,0.3,,0.68
1.500409999999988,0.1,-1.5,0.1,,0.68
1.5102299999999786,0.1,-1.5,0.1,3.6,
1.5200399999999945,0.4,1.4,-0.3,,1.64
1.529769999999985,0.4,1.4,-0.3,,1.64
1.5395799999998871,0.4,1.4,-0.3,,0.82
1.5493999999999915,-0.4,0.2,0.7,,0.82
1.5592099999998936,-0.4,0.2,0.7,,0.82
1.5690199999999095,0.4,-1.1,0.7,,1.96
1.5788399999999,0.4,-1.1,0.7,,1.96
1.588649999999916,1.4,0.2,-0.2,,0.73
1.5984599999999318,1.4,0.2,-0.2,,0.73
1.6082799999999224,0.0,-0.2,0.4,,0.91
1.6180899999999383,0.0,-0.2,0.4,,0.91
1.6278999999999542,-0.3,-0.9,-1.5,,0.68
1.6376299999999446,-0.3,-0.9,-1.5,,0.68
1.6474399999999605,0.2,0.3,-0.3,-2.4,
1.657259999999951,0.2,0.3,-0.3,,1.64
1.667069999999967,0.5,-0.3,-0.4,,1.96
1.6768799999999828,0.5,-0.3,-0.4,-6.0,
1.6866999999999734,-1.2,-0.7,0.0,,0.41
1.6965099999999893,-1.2,-0.7,0.0,,0.41
1.7063199999998915,0.3,-1.2,-0.1,,1.64
1.7161399999999958,0.3,-1.2,-0.1,,1.64
1.725949999999898,0.3,-1.2,-0.1,,1.09
1.7357599999999138,0.3,-0.2,-0.1,0.2,
1.7455799999999044,0.3,-0.2,-0.1,,1.09
1.7553899999999203,-0.1,0.0,0.1,,1.09
1.7651199999999108,-0.1,0.0,0.1,,1.09
1.7749299999999266,-0.3,0.5,0.0,,1.96
1.7847399999999425,-0.3,0.5,0.0,,1.96
1.794559999999933,0.5,0.1,0.2,,1.64
1.804369999999949,0.5,0.1,0.2,-3.8,
1.8141799999999648,-0.2,1.0,-0.4,,1.64
1.8239999999999554,-0.2,1.0,-0.4,,1.64
1.8338099999999713,0.0,0.1,-0.1,,0.82
1.8436199999999872,0.0,0.1,-0.1,,0.82
1.8534399999999778,0.0,1.3,0.4,,0.68
1.8632499999999936,0.0,1.3,0.4,0.8,
1.8730599999998958,0.2,0.1,1.4,-3.4,
1.88288,0.2,0.1,1.4,,0.54
1.8926899999999023,0.4,0.0,-0.1,,0.54
1.9024199999998928,0.4,0.0,-0.1,,0.54
1.9122299999999086,-0.2,0.2,0.0,,0.68
1.9220499999998992,-0.2,0.2,0.0,,0.68
1.931859999999915,-0.2,0.2,0.0,-6.0,
1.941669999999931,1.0,0.1,-0.4,-6.0,
1.9514899999999216,1.0,0.1,-0.4,,1.64
1.9612999999999374,1.1,-1.2,0.1,,0.86
1.9711099999999533,1.1,-1.2,0.1,,0.86
1.980929999999944,0.5,-0.3,1.3,,0.54
1.9907399999999598,0.5,-0.3,1.3,,0.54
2.0005499999999756,-0.5,0.6,-0.1,0.4,
2.0103699999999662,-0.5,0.6,-0.1,,1.64
2.020089999999982,1.2,-0.1,-0.4,,1.0
2.0299099999999726,1.2,-0.1,-0.4,-2.0,
2.0397199999999884,0.6,-0.1,0.0,,0.36
2.0495299999998906,0.6,-0.1,0.0,,0.36
2.059349999999995,-0.4,0.2,0.2,-2.4,
2.069159999999897,-0.4,0.2,0.2,,1.46
2.078969999999913,-0.4,0.5,-0.4,,0.36
2.0887899999999036,-0.4,0.5,-0.4,5.0,
2.0985999999999194,0.2,-0.3,0.5,-2.0,
2.1084099999999353,0.2,-0.3,0.5,,0.04
2.118229999999926,0.2,-0.3,0.5,-6.0,
2.1280399999999418,-1.0,0.5,0.1,,1.96
2.1377699999999322,-1.0,0.5,0.1,,1.96
2.147579999999948,-1.2,0.5,0.3,,0.73
2.1573999999999387,-1.2,0.5,0.3,2.2,
2.1672099999999546,-0.3,-1.4,0.2,,0.54
2.1770199999999704,-0.3,-1.4,0.2,,0.54
2.186839999999961,-0.1,0.3,0.0,,0.68
2.196649999999977,-0.1,0.3,0.0,,0.68
2.2064599999999928,-0.4,0.3,-0.2,,1.64
2.2162799999999834,-0.4,0.3,-0.2,,1.64
2.2260899999999992,0.1,-0.4,0.6,-3.4,
2.2358999999999014,0.1,-0.4,0.6,,0.41
2.245719999999892,-0.5,0.5,-0.2,,1.32
2.2554399999999077,-0.5,0.5,-0.2,,1.32
2.2653399999999237,0.0,0.6,0.1,,0.73
2.2751599999999144,0.0,0.6,0.1,,0.73
2.28487999999993,0.2,-0.2,0.4,3.6,
2.2946999999999207,0.2,-0.2,0.4,,0.36
2.3045099999999366,-0.4,-0.1,0.0,,0.86
2.3143199999999524,-0.4,-0.1,0.0,,0.86
2.324139999999943,-0.4,-0.1,0.0,,0.54
2.333949999999959,-0.2,0.0,-0.3,,0.54
2.3437599999999748,-0.2,0.0,-0.3,,0.54
2.3535799999999654,-0.4,-0.5,0.0,0.0,
2.3633899999999812,-0.4,-0.5,0.0,,1.64
2.373199999999997,0.4,0.9,-0.7,,0.68
2.3830199999999877,0.4,0.9,-0.7,-2.0,
2.39282999999989,0.6,-0.5,0.1,,0.86
2.402559999999994,0.6,-0.5,0.1,,0.86
2.412369999999896,-0.7,1.3,-0.1,0.4,
2.422179999999912,-0.7,1.3,-0.1,,1.64
2.4319999999999027,-0.2,0.3,-0.4,,0.95
2.4418099999999185,-0.2,0.3,-0.4,-2.0,
2.4516199999999344,0.4,0.3,0.4,,1.64
2.461439999999925,0.4,0.3,0.4,,1.64
2.471249999999941,-0.7,0.0,0.1,,0.36
2.4810599999999567,-0.7,0.0,0.1,,0.36
2.4908799999999474,-0.4,0.6,-0.4,,0.86
2.500689999999963,-0.4,0.6,-0.4,3.0,
2.510499999999979,-0.4,0.6,-0.4,,0.86
2.5202299999999696,-0.4,1.4,0.2,,0.86
2.53004999999996,-0.4,1.4,0.2,,0.86
2.539859999999976,-0.4,0.7,-0.5,,1.0
2.549669999999992,-0.4,0.7,-0.5,,1.0
2.5594899999999825,-0.7,-0.1,0.8,,0.54
2.5692999999999984,-0.7,-0.1,0.8,3.6,
2.5791099999999005,0.3,-0.1,-0.2,,0.73
2.588929999999891,0.3,-0.1,-0.2,,0.73
2.598739999999907,-0.5,0.3,0.2,,1.0
2.608549999999923,-0.5,0.3,0.2,,1.0
2.6183699999999135,0.1,0.2,-0.3,,0.54
2.628089999999929,0.1,0.2,-0.3,-0.6,
2.63790999999992,-0.3,0.5,0.3,,0.36
2.6477199999999357,-0.3,0.5,0.3,,0.36
2.6575299999999515,0.0,0.5,0.5,,0.63
2.667349999999942,0.0,0.5,0.5,,0.63
2.677159999999958,0.1,-0.1,-0.1,,0.36
2.686969999999974,0.1,-0.1,-0.1,-2.0,
2.6967899999999645,0.1,-0.8,0.2,,0.36
2.7065999999999804,0.1,-0.8,0.2,,0.36
2.716409999999996,0.1,-0.8,0.2,,0.73
2.726229999999987,0.4,0.1,-0.7,,0.73
2.736039999999889,0.4,0.1,-0.7,,0.73
2.745849999999905,0.1,-1.6,-0.3,,1.0
2.7555799999998953,0.1,-1.6,-0.3,,1.0
2.7653999999999996,0.0,-0.7,-0.6,,0.73
2.775209999999902,0.0,-0.7,-0.6,,0.73
2.7850199999999177,0.1,-1.4,0.2,,0.68
2.7948399999999083,0.1,-1.4,0.2,,0.68
2.804649999999924,1.5,0.1,1.4,,1.0
2.81445999999994,1.5,0.1,1.4,,1.0
2.8242799999999306,-0.8,1.0,-0.2,0.2,
2.8340899999999465,-0.8,1.0,-0.2,,0.63
2.8438999999999623,-0.3,0.2,1.4,,0.68
2.853719999999953,-0.3,0.2,1.4,-0.6,
2.863529999999969,0.2,0.3,0.4,,1.96
2.8733399999999847,0.2,0.3,0.4,,1.96
2.883069999999975,-0.1,0.1,-0.6,,0.36
2.892879999999991,-0.1,0.1,-0.6,,0.36
2.9026999999999816,-0.1,0.1,-0.6,,2.1
2.9125099999999975,0.9,-0.1,-0.1,-3.8,
2.9223199999998997,0.9,-0.1,-0.1,-3.8,
2.9321399999998903,-0.1,-1.2,-0.3,,0.68
2.941949999999906,-0.1,-1.2,-0.3,,0.68
2.951759999999922,-0.9,0.3,0.9,,0.73
2.9615799999999126,-0.9,0.3,0.9,,0.73
2.9713899999999285,-0.5,1.1,0.0,,0.68
2.9811999999999443,-0.5,1.1,0.0,-0.6,
2.991019999999935,0.0,0.6,-0.1,,1.64
3.000829999999951,0.0,0.6,-0.1,,1.64
3.0105599999999413,-0.1,0.3,-0.5,,1.05
3.020369999999957,-0.1,0.3,-0.5,,1.05
3.030179999999973,0.3,-1.4,0.1,,1.27
3.0399999999999636,0.3,-1.4,0.1,-2.0,
3.0498099999999795,0.0,0.2,0.2,-2.6,
3.0596199999999953,0.0,0.2,0.2,,0.82
3.069439999999986,0.1,0.2,0.2,,0.68
3.079249999999888,0.1,0.2,0.2,,0.68
3.089059999999904,-0.1,0.3,0.2,,1.0
3.0988799999998946,-0.1,0.3,0.2,,1.0
3.1086899999999105,-0.1,0.3,0.2,,0.41
3.1184999999999263,-0.6,0.6,0.4,,0.41
3.128319999999917,-0.6,0.6,0.4,-4.0,
3.138129999999933,-0.3,-0.2,0.6,,0.77
3.1478599999999233,-0.3,-0.2,0.6,,0.77
3.157669999999939,-0.7,0.9,0.3,,1.0
3.1674899999999298,-0.7,0.9,0.3,,1.0
3.1772999999999456,0.0,-0.2,0.2,,1.59
3.1871099999999615,0.0,-0.2,0.2,,1.59
3.196929999999952,-0.1,0.2,-0.3,,0.36
3.206739999999968,-0.1,0.2,-0.3,,0.36
3.216549999999984,11.2,-5.2,32.9,,0.36
3.2263699999999744,11.2,-5.2,32.9,,0.36
3.2361799999999903,-11.2,-4.3,-6.9,12.2,
3.2459899999998925,-11.2,-4.3,-6.9,,0.36
3.2558099999999968,2.6,-0.7,0.8,,1.46
3.265529999999899,2.6,-0.7,0.8,-3.8,
3.2753499999998894,0.1,0.5,-1.4,,0.86
3.2851599999999053,0.1,0.5,-1.4,,0.86
3.294969999999921,0.1,0.5,-1.4,0.2,
3.3047899999999117,-0.3,-0.3,-0.1,0.2,
3.3145999999999276,-0.3,-0.3,-0.1,,0.41
3.3244099999999435,-0.5,0.1,-0.1,-4.8,
3.334229999999934,-0.5,0.1,-0.1,,0.54
3.34403999999995,0.3,-0.2,-0.3,,1.64
3.353849999999966,0.3,-0.2,-0.3,,1.64
3.3636699999999564,0.4,-0.4,0.1,-2.0,
3.3734799999999723,0.4,-0.4,0.1,,0.86
3.383289999999988,-0.2,-0.6,0.2,-6.6,
3.3930199999999786,-0.2,-0.6,0.2,-6.6,
3.4028399999999692,0.7,-0.1,1.4,,0.73
3.412649999999985,0.7,-0.1,1.4,,0.73
3.4224599999998873,-1.2,-0.6,-0.4,0.0,
3.4322799999999916,-1.2,-0.6,-0.4,,1.64
3.4420899999998937,0.1,-0.6,0.0,,0.54
3.4518999999999096,0.1,-0.6,0.0,-4.8,
3.4617199999999,0.4,0.0,-0.1,,0.54
3.471529999999916,0.4,0.0,-0.1,,0.54
3.481339999999932,0.0,1.5,0.0,-3.4,
3.4911599999999225,0.0,1.5,0.0,,1.14
3.5009699999999384,0.0,1.5,0.0,,1.64
3.5107799999999543,0.2,-0.3,-0.2,,1.64
3.520599999999945,0.2,-0.3,-0.2,,1.64
3.5304099999999607,0.0,0.1,0.0,,0.77
3.540139999999951,0.0,0.1,0.0,-2.0,
3.549949999999967,-0.8,0.1,0.4,,1.46
3.559759999999983,-0.8,0.1,0.4,,1.46
3.5695799999999736,-0.5,-0.5,0.1,,0.68
3.5793899999999894,-0.5,-0.5,0.1,,0.68
3.5891999999998916,0.4,-0.1,0.3,,0.36
3.599019999999996,0.4,-0.1,0.3,,0.36
3.608829999999898,0.4,-0.4,-0.1,,0.36
3.618639999999914,0.4,-0.4,-0.1,,0.36
3.6284599999999045,0.1,0.3,0.2,,0.36
3.6382699999999204,0.1,0.3,0.2,,0.36
3.6480799999999363,0.2,1.3,0.3,-2.4,
3.6578099999999267,0.2,1.3,0.3,,1.64
3.6676199999999426,0.4,0.2,-0.7,-6.6,
3.677439999999933,0.4,0.2,-0.7,-6.6,
3.687249999999949,0.4,0.2,-0.7,,0.36
3.697059999999965,0.2,0.0,0.2,,0.36
3.7068799999999555,0.2,0.0,0.2,,0.36
3.7166899999999714,0.8,0.2,0.4,3.0,
3.7264999999999873,0.8,0.2,0.4,,0.82
3.736319999999978,0.7,-0.3,1.5,-2.0,
3.7461299999999937,0.7,-0.3,1.5,,0.36
3.755939999999896,-0.3,-0.3,0.0,,0.22
3.76576,-0.3,-0.3,0.0,,0.22
3.7755699999999024,0.5,0.0,-0.1,-5.4,
3.785299999999893,0.5,0.0,-0.1,,1.09
3.7951099999999087,-1.3,0.9,0.2,3.0,
3.8049299999998993,-1.3,0.9,0.2,3.0,
3.814739999999915,0.4,-1.6,0.2,,0.63
3.824549999999931,0.4,-1.6,0.2,,0.63
3.8343699999999217,1.1,-0.1,0.5,-4.8,
3.8441799999999375,1.1,-0.1,0.5,,1.09
3.8539899999999534,-0.3,-0.1,0.1,,0.68
3.863809999999944,-0.3,-0.1,0.1,-2.6,
3.87361999999996,-0.4,0.2,0.7,,1.14
3.8834299999999757,-0.4,0.2,0.7,,1.14
3.893159999999966,-0.4,0.2,0.7,,1.0
3.902969999999982,-0.5,0.9,0.8,,1.0
3.9127899999999727,-0.5,0.9,0.8,,1.0
3.9225999999999885,-0.2,-1.5,0.9,,1.18
3.9324099999998907,-0.2,-1.5,0.9,,1.18
3.942229999999995,-0.5,-0.2,0.3,,0.68
3.952039999999897,-0.5,-0.2,0.3,,0.68
3.961849999999913,0.2,0.2,0.1,,1.64
3.9716699999999037,0.2,0.2,0.1,,1.64
3.9814799999999195,-0.4,-0.5,0.7,,0.68
3.9912899999999354,-0.4,-0.5,0.7,,0.68
4.001109999999926,-0.5,1.1,-0.5,-2.0,
4.010919999999942,-0.5,1.1,-0.5,,0.68
4.020729999999958,0.1,0.2,0.1,,1.64
4.030459999999948,0.1,0.2,0.1,0.4,
4.040279999999939,0.2,0.0,0.0,,0.68
4.050089999999955,0.2,0.0,0.0,,0.68
4.0598999999999705,0.3,0.3,0.1,,0.36
4.069719999999961,0.3,0.3,0.1,,0.36
4.079529999999977,0.3,0.3,0.1,,1.0
4.089339999999993,-0.4,0.2,-0.4,0.8,
4.0991599999999835,-0.4,0.2,-0.4,,1.0
4.108969999999999,-1.6,-0.9,-0.1,,0.68
4.1187799999999015,-1.6,-0.9,-0.1,,0.68
4.128599999999892,-0.7,1.2,0.0,5.0,
4.138409999999908,-0.7,1.2,0.0,,0.36
4.1481399999998985,0.2,0.5,-0.5,1.6,
4.157949999999914,0.2,0.5,-0.5,1.6,
4.16775999999993,-0.2,-0.3,-0.2,,1.64
4.177579999999921,-0.2,-0.3,-0.2,,1.64
4.187389999999937,-0.5,-0.1,-0.2,-2.2,
4.1971999999999525,-0.5,-0.1,-0.2,,1.14
4.207019999999943,0.5,-0.2,0.1,,0.95
4.216829999999959,0.5,-0.2,0.1,0.2,
4.226639999999975,-0.5,0.5,-0.3,,1.64
4.2364599999999655,-0.5,0.5,-0.3,,1.64
4.246269999999981,0.3,-0.3,0.0,,0.63
4.256079999999997,0.3,-0.3,0.0,,0.63
4.265809999999988,0.6,-0.4,0.4,,1.96
4.27561999999989,0.6,-0.4,0.4,-2.4,
4.285439999999994,0.6,-0.4,0.4,,0.54
4.295249999999896,-1.0,0.6,-0.1,,0.54
4.305059999999912,-1.0,0.6,-0.1,3.6,
4.314879999999903,1.5,0.1,0.2,,0.68
4.324689999999919,1.5,0.1,0.2,,0.68
4.3344999999999345,0.2,1.5,0.0,,0.68
4.344319999999925,0.2,1.5,0.0,,0.68
4.354129999999941,0.2,0.3,1.0,-2.6,
4.363939999999957,0.2,0.3,1.0,,1.09
4.3737599999999475,-0.1,-1.5,0.2,,1.09
4.383489999999938,-0.1,-1.5,0.2,,1.09
4.393299999999954,-0.2,0.2,1.1,,0.68
4.40310999999997,-0.2,0.2,1.1,,0.68
4.41292999999996,0.0,-0.2,0.1,-4.0,
4.422739999999976,0.0,-0.2,0.1,,0.73
4.432549999999992,-0.3,0.3,-0.6,,0.63
4.442369999999983,-0.3,0.3,-0.6,,0.63
4.4521799999999985,-0.4,0.1,0.3,,0.41
4.461989999999901,-0.4,0.1,0.3,,0.41
4.471809999999891,-0.4,0.1,0.3,1.6,
4.481619999999907,0.0,1.5,0.1,1.6,
4.491429999999923,0.0,1.5,0.1,,0.41
4.501249999999914,1.5,1.2,-0.1,,0.77
4.510969999999929,1.5,1.2,-0.1,,0.77
4.52078999999992,0.3,0.1,0.9,,1.46
4.530599999999936,0.3,0.1,0.9,,1.46
4.540409999999952,0.9,0.5,-0.1,0.2,
4.550229999999942,0.9,0.5,-0.1,,0.68
4.560039999999958,-0.5,1.2,-0.1,,1.64
4.569849999999974,-0.5,1.2,-0.1,0.4,
4.579669999999965,0.1,-0.6,0.0,,0.68
4.5894799999999805,0.1,-0.6,0.0,,0.68
4.599289999999996,0.1,0.5,-0.4,0.8,
4.609109999999987,0.1,0.5,-0.4,,1.05
4.618919999999889,0.4,-0.3,-1.5,,0.04
4.628729999999905,0.4,-0.3,-1.5,-2.0,
4.6384599999998954,-0.8,-0.5,0.0,,1.09
4.64828,-0.8,-0.5,0.0,,1.09
4.658089999999902,0.6,-0.5,1.5,-3.2,
4.667899999999918,0.6,-0.5,1.5,,0.63
4.677719999999908,0.6,-0.5,1.5,,0.63
4.687529999999924,0.3,-0.2,0.0,-2.0,
4.69733999999994,0.3,-0.2,0.0,,0.54
4.707159999999931,-0.3,0.6,-0.1,,1.0
4.716969999999947,-0.3,0.6,-0.1,-4.4,
4.7267799999999625,0.4,0.0,0.2,,0.54
4.736599999999953,0.4,0.0,0.2,,0.54
4.746409999999969,0.1,0.3,0.1,,1.18
4.756219999999985,0.1,0.3,0.1,,1.18
4.765949999999975,0.3,0.6,-0.4,,1.46
4.775759999999991,0.3,0.6,-0.4,,1.46
4.785579999999982,-0.1,0.2,-0.2,,0.54
4.795389999999998,-0.1,0.2,-0.2,,0.54
4.8051999999999,0.4,0.4,0.1,,1.09
4.81501999999989,0.4,0.4,0.1,,1.09
4.824829999999906,-0.2,1.5,0.5,5.0,
4.834639999999922,-0.2,1.5,0.5,,0.54
4.844459999999913,-0.5,0.4,0.0,-2.6,
4.854269999999929,-0.5,0.4,0.0,,0.77
4.8640799999999444,-0.5,0.4,0.0,,0.36
4.873899999999935,-0.5,0.5,0.0,,0.36
4.883619999999951,-0.5,0.5,0.0,,0.36
4.893439999999941,0.1,0.2,-0.2,,0.36
4.903249999999957,0.1,0.2,-0.2,,0.36
4.913059999999973,0.2,1.0,-0.7,,0.68
4.922879999999964,0.2,1.0,-0.7,,0.68
4.93268999999998,-0.4,-1.3,0.8,,1.0
4.9424999999999955,-0.4,-1.3,0.8,,1.0
4.952319999999986,0.2,0.6,-0.4,2.2,
4.962129999999888,0.2,0.6,-0.4,,1.14
4.971939999999904,0.5,-1.3,0.1,,0.95
4.981759999999895,0.5,-1.3,0.1,0.8,
4.991569999999911,0.2,-0.9,-1.1,,0.54
5.001299999999901,0.2,-0.9,-1.1,,0.54
5.011109999999917,0.6,0.0,0.3,1.2,
5.0209299999999075,0.6,0.0,0.3,,1.37
5.030739999999923,-0.4,0.5,-0.1,,1.64
5.040549999999939,-0.4,0.5,-0.1,-6.6,
5.05036999999993,0.0,-0.6,0.0,,0.54
5.060179999999946,0.0,-0.6,0.0,,0.54
5.069989999999962,0.0,-0.6,0.0,,0.82
5.079809999999952,-0.4,-0.4,-0.1,,0.82
5.089619999999968,-0.4,-0.4,-0.1,,0.82
5.099429999999984,0.6,0.0,-0.5,,1.96
5.1092499999999745,0.6,0.0,-0.5,,1.96
5.11896999999999,-0.3,-0.9,-0.8,,0.36
5.128789999999981,-0.3,-0.9,-0.8,,0.36
5.138599999999997,-0.2,0.5,0.0,,1.96
5.148409999999899,-0.2,0.5,0.0,,1.96
5.1582299999998895,0.3,-0.4,0.3,,0.54
5.168039999999905,0.3,-0.4,0.3,,0.54
5.177849999999921,-0.7,0.6,-0.5,,1.0
5.187669999999912,-0.7,0.6,-0.5,,1.0
5.197479999999928,0.3,0.6,-0.2,,1.09
5.207289999999944,0.3,0.6,-0.2,,1.09
5.217109999999934,0.6,-0.3,0.0,,0.77
5.22691999999995,0.6,-0.3,0.0,,0.77
5.236729999999966,0.1,0.1,-0.3,,0.36
5.2465499999999565,0.1,0.1,-0.3,,0.36
5.256279999999947,0.1,0.1,-0.3,,0.54
5.266089999999963,0.4,-1.3,-0.1,,0.54
5.275899999999979,0.4,-1.3,-0.1,,0.54
5.285719999999969,0.9,0.4,1.3,,0.54
5.295529999999985,0.9,0.4,1.3,,0.54
5.305339999999887,-0.1,0.1,0.2,,1.09
5.315159999999992,-0.1,0.1,0.2,,1.09
5.324969999999894,-0.5,1.0,0.1,,0.54
5.33477999999991,-0.5,1.0,0.1,,0.54
5.3445999999999,0.3,0.0,-0.1,,0.5
5.354409999999916,0.3,0.0,-0.1,,0.5
5.364219999999932,0.1,0.9,-0.7,-1.0,
5.374039999999923,0.1,0.9,-0.7,,0.91
5.383759999999938,-0.2,0.1,-0.2,,0.86
5.393579999999929,-0.2,0.1,-0.2,-3.4,
5.403389999999945,-0.6,-0.3,1.0,,0.73
5.413199999999961,-0.6,-0.3,1.0,,0.73
5.423019999999951,0.5,0.0,-0.2,,1.0
5.432829999999967,0.5,0.0,-0.2,,1.0
5.442639999999983,0.5,0.0,-0.2,,0.68
5.452459999999974,1.2,0.9,0.0,-1.2,
5.4622699999999895,1.2,0.9,0.0,,0.68
5.472079999999892,-10.9,-17.4,19.1,,0.68
5.481899999999996,-10.9,-17.4,19.1,95.8,
5.491709999999898,20.1,6.3,1.1,,0.68
5.501519999999914,20.1,6.3,1.1,,0.68
5.5112499999999045,0.8,1.1,1.5,2.2,
5.52105999999992,0.8,1.1,1.5,2.2,
5.530879999999911,-0.2,-0.7,0.7,,0.36
5.540689999999927,-0.2,-0.7,0.7,,0.36
5.550499999999943,-1.5,-0.8,0.4,,0.36
5.560319999999933,-1.5,-0.8,0.4,,0.36
5.570129999999949,-0.3,0.4,-0.1,,0.77
5.579939999999965,-0.3,0.4,-0.1,-2.0,
5.589759999999956,0.6,-0.3,-1.6,,0.41
5.5995699999999715,0.6,-0.3,-1.6,,0.41
5.609379999999987,-0.7,-0.5,0.2,,0.59
5.619199999999978,-0.7,-0.5,0.2,,0.59
5.629009999999994,0.3,-0.3,0.2,,0.36
5.638739999999984,0.3,-0.3,0.2,3.6,
5.64855,0.3,-0.3,0.2,,0.68
5.658369999999991,-1.1,-0.6,0.3,,0.68
5.668179999999893,-1.1,-0.6,0.3,-4.4,
5.677989999999909,0.3,1.5,-0.6,,0.68
5.6878099999998994,0.3,1.5,-0.6,,0.68
5.697619999999915,-0.4,0.0,-0.1,,1.64
5.707429999999931,-0.4,0.0,-0.1,,1.64
5.717249999999922,0.1,-1.2,0.5,,0.68
5.727059999999938,0.1,-1.2,0.5,,0.68
5.7368699999999535,-0.4,0.2,-1.0,,1.64
5.746689999999944,-0.4,0.2,-1.0,,1.64
5.75649999999996,0.6,0.4,0.5,,0.77
5.7662299999999505,0.6,0.4,0.5,,0.77
5.776039999999966,-0.2,-1.1,-0.2,3.8,
5.785849999999982,-0.2,-1.1,-0.2,,0.68
5.795669999999973,0.0,0.5,1.5,,0.73
5.805479999999989,0.0,0.5,1.5,0.2,
5.815289999999891,0.1,-0.3,0.0,,0.36
5.825109999999995,0.1,-0.3,0.0,,0.36
5.834919999999897,0.1,0.2,0.0,,0.36
5.844729999999913,0.1,0.2,0.0,,0.36
5.854549999999904,0.1,0.2,0.0,,0.36
5.86435999999992,0.5,0.0,0.0,3.6,
5.8741699999999355,0.5,0.0,0.0,,0.68
5.883899999999926,0.2,0.4,0.2,,0.41
5.893719999999917,0.2,0.4,0.2,-4.0,
5.903529999999932,1.4,0.2,-1.3,,0.22
5.913339999999948,1.4,0.2,-1.3,,0.22
5.923159999999939,0.4,0.0,0.2,-0.6,
5.932969999999955,0.4,0.0,0.2,-0.6,
5.942779999999971,0.4,0.4,-0.2,,1.46
5.952599999999961,0.4,0.4,-0.2,,1.46
5.962409999999977,0.6,-0.1,0.3,,1.64
5.972219999999993,0.6,-0.1,0.3,,1.64
5.982039999999984,-1.2,0.0,-0.1,,1.64
5.9918499999999995,-1.2,0.0,-0.1,0.4,
6.001659999999902,0.7,0.7,0.6,,1.64
6.011479999999892,0.7,0.7,0.6,,1.64
6.021199999999908,0.1,0.1,0.0,-5.2,
6.031019999999899,0.1,0.1,0.0,,1.64
6.040829999999914,0.1,0.1,0.0,,0.54
6.05063999999993,0.3,0.0,0.6,,0.54
6.060459999999921,0.3,0.0,0.6,,0.54
6.070269999999937,0.2,0.1,-0.3,,0.73
6.080079999999953,0.2,0.1,-0.3,-1.4,
6.089899999999943,-0.2,-1.2,0.0,,1.64
6.099709999999959,-0.2,-1.2,0.0,,1.64
6.109519999999975,-0.2,0.4,1.5,,1.78
6.119339999999966,-0.2,0.4,1.5,,1.78
6.1291499999999814,0.1,-1.5,-0.1,,0.91
6.138879999999972,0.1,-1.5,-0.1,,0.91
6.148689999999988,-0.5,-1.2,0.8,,1.09
6.15849999999989,-0.5,-1.2,0.8,,1.09
6.168319999999994,-0.5,1.4,-0.8,,0.59
6.178129999999896,-0.5,1.4,-0.8,,0.59
6.187939999999912,0.1,-1.5,1.0,-4.8,
6.197759999999903,0.1,-1.5,1.0,,1.14
6.207569999999919,-0.8,0.1,-1.1,3.6,
6.217379999999935,-0.8,0.1,-1.1,3.6,
6.227199999999925,-0.8,0.1,-1.1,,0.36
6.237009999999941,0.0,-0.3,0.3,,0.36
6.246819999999957,0.0,-0.3,0.3,,1.64
6.256549999999947,-0.2,-0.6,0.6,,1.64
6.266369999999938,-0.2,-0.6,0.6,,1.64
6.276179999999954,-0.9,-0.3,-0.6,-2.0,
6.28598999999997,-0.9,-0.3,-0.6,,1.09
6.29580999999996,-0.7,1.3,0.1,,1.09
6.305619999999976,-0.7,1.3,0.1,,1.09
6.315429999999992,0.6,-1.2,0.4,,1.64
6.325249999999983,0.6,-1.2,0.4,,1.64
6.335059999999999,-0.4,0.1,-0.6,0.8,
6.344869999999901,-0.4,0.1,-0.6,0.8,
6.354689999999891,-0.2,0.5,-0.1,,0.59
6.364409999999907,-0.2,0.5,-0.1,,0.59
6.374229999999898,0.3,-0.1,0.3,,0.45
6.384039999999914,0.3,-0.1,0.3,,0.45
6.393849999999929,-0.5,-0.5,-0.1,,0.36
6.40366999999992,-0.5,-0.5,-0.1,3.6,
6.413479999999936,0.3,-0.2,-0.9,,0.77
6.423289999999952,0.3,-0.2,-0.9,,0.77
6.433109999999942,0.3,-0.2,-0.9,,0.68
6.442919999999958,-1.4,-0.3,0.0,,0.68
6.452729999999974,-1.4,-0.3,0.0,,0.68
6.462549999999965,-0.3,-0.3,-0.1,,1.18
6.472359999999981,-0.3,-0.3,-0.1,,1.18
6.482089999999971,-0.3,0.2,-0.6,,0.36
6.491899999999987,-0.3,0.2,-0.6,,0.36
6.5017199999999775,0.5,0.3,-0.2,,0.91
6.511529999999993,0.5,0.3,-0.2,,0.91
6.5213399999998956,-0.4,0.5,-0.3,,1.18
6.53116,-0.4,0.5,-0.3,,1.18
6.540969999999902,1.2,-0.2,-0.1,-2.2,
6.550779999999918,1.2,-0.2,-0.1,,0.54
6.5605999999999085,0.8,-1.5,0.4,,0.82
6.570409999999924,0.8,-1.5,0.4,-2.6,
6.58021999999994,-0.4,-0.3,0.2,,0.54
6.590039999999931,-0.4,-0.3,0.2,,0.54
6.599759999999947,-0.7,0.3,-0.3,,0.54
6.609579999999937,-0.7,0.3,-0.3,,0.54
6.619389999999953,-0.7,0.3,-0.3,,1.96
6.629199999999969,1.0,0.0,0.2,-6.6,
6.6390199999999595,1.0,0.0,0.2,,1.96
6.648829999999975,0.8,0.1,-1.1,,0.73
6.658639999999991,0.8,0.1,-1.1,,0.73
6.668459999999982,0.7,0.0,0.4,,0.45
6.678269999999998,0.7,0.0,0.4,,0.45
6.6880799999999,0.6,-0.4,0.0,,1.27
6.6978999999998905,0.6,-0.4,0.0,0.8,
6.707619999999906,-0.6,-0.4,-0.5,,1.64
6.717439999999897,-0.6,-0.4,-0.5,,1.64
6.727249999999913,0.5,-0.1,0.0,,1.0
6.7370599999999286,0.5,-0.1,0.0,,1.0
6.746879999999919,-0.3,-0.4,0.1,,0.54
6.756689999999935,-0.3,-0.4,0.1,0.8,
6.766499999999951,-0.5,0.6,0.1,,0.68
6.7763199999999415,-0.5,0.6,0.1,,0.68
6.786129999999957,0.0,0.2,1.4,,0.59
6.795939999999973,0.0,0.2,1.4,,0.59
6.805759999999964,0.2,-1.3,0.1,,1.46
6.81556999999998,0.2,-1.3,0.1,,1.46
6.825379999999996,0.2,-1.3,0.1,,0.36
6.835109999999986,-0.2,0.7,-1.5,,0.36
6.844929999999977,-0.2,0.7,-1.5,,0.36
6.8547399999999925,-0.6,0.1,0.2,,0.68
6.864549999999895,-0.6,0.1,0.2,,0.68
6.874369999999999,0.8,-0.6,-0.2,,1.18
6.884179999999901,0.8,-0.6,-0.2,,1.18
6.893989999999917,0.8,0.9,-0.7,-2.0,
6.903809999999908,0.8,0.9,-0.7,,0.36
6.9136199999999235,-0.2,0.2,-0.4,,1.96
6.923429999999939,-0.2,0.2,-0.4,1.8,
6.93324999999993,-0.8,-0.5,-0.3,,0.68
6.942969999999946,-0.8,-0.5,-0.3,,0.68
6.952789999999936,-0.3,-0.1,0.2,-3.4,
6.962599999999952,-0.3,-0.1,0.2,,0.73
6.972409999999968,0.2,-0.1,-1.5,,0.54
6.982229999999959,0.2,-0.1,-1.5,-0.6,
6.9920399999999745,-0.2,-0.7,-0.7,,0.36
7.00184999999999,-0.2,-0.7,-0.7,,0.36
7.011669999999981,-0.2,-0.7,-0.7,4.0,
7.021479999999997,-0.5,0.4,1.4,,0.86
7.031289999999899,-0.5,0.4,1.4,,0.86
7.04110999999989,0.8,0.2,-0.1,0.4,
7.0509199999999055,0.8,0.2,-0.1,0.4,
7.060649999999896,-0.4,0.4,0.3,,1.64
7.070459999999912,-0.4,0.4,0.3,,1.64
7.080279999999902,0.3,-0.3,0.2,,1.05
7.090089999999918,0.3,-0.3,0.2,,1.05
7.099899999999934,0.3,1.5,-0.1,,1.0
7.109719999999925,0.3,1.5,-0.1,-2.0,
7.119529999999941,-0.6,0.3,-0.6,,1.64
7.1293399999999565,-0.6,0.3,-0.6,,1.64
7.139159999999947,0.3,0.5,-0.2,,0.36
7.148969999999963,0.3,0.5,-0.2,,0.36
7.158779999999979,0.0,0.0,0.4,,0.36
7.168599999999969,0.0,0.0,0.4,5.0,
7.178319999999985,-0.3,0.6,0.2,-1.4,
7.188139999999976,-0.3,0.6,0.2,,0.41
7.197949999999992,0.8,-0.5,-0.3,-1.0,
7.207759999999894,0.8,-0.5,-0.3,,1.78
7.217579999999998,0.8,-0.5,-0.3,,0.68
7.2273899999999,-0.5,0.0,1.4,,0.68
7.237199999999916,-0.5,0.0,1.4,,0.68
7.247019999999907,-0.5,1.3,0.1,3.6,
7.256829999999923,-0.5,1.3,0.1,,0.77
7.2666399999999385,-0.2,-0.1,-1.3,,0.36
7.276459999999929,-0.2,-0.1,-1.3,,0.36
7.286269999999945,0.2,-0.6,0.6,,0.5
7.296079999999961,0.2,-0.6,0.6,,0.5
7.305809999999951,-0.6,-0.3,-0.3,-2.0,
7.315619999999967,-0.6,-0.3,-0.3,,0.36
7.325439999999958,-0.2,0.0,-0.7,,1.64
7.335249999999974,-0.2,0.0,-0.7,-2.4,
7.3450599999999895,-0.2,-0.1,0.4,,0.36
7.35487999999998,-0.2,-0.1,0.4,,0.36
7.364689999999996,0.0,0.4,-1.1,-5.2,
7.374499999999898,0.0,0.4,-1.1,,1.64
7.384319999999889,-0.4,0.6,0.0,,1.64
7.394129999999905,-0.4,0.6,0.0,-6.0,
7.4039399999999205,-0.4,0.6,0.0,,0.73
7.413669999999911,0.3,-0.5,0.1,,0.73
7.423489999999902,0.3,-0.5,0.1,,0.73
7.433299999999917,0.1,0.0,-0.5,-2.2,
7.443109999999933,0.1,0.0,-0.5,,1.0
7.452929999999924,-0.5,0.4,-0.2,-2.4,
7.46273999999994,-0.5,0.4,-0.2,-2.4,
7.472549999999956,-0.5,-0.5,-1.1,,1.64
7.482369999999946,-0.5,-0.5,-1.1,,1.64
7.492179999999962,-0.3,0.8,-0.3,-2.6,
7.501989999999978,-0.3,0.8,-0.3,,1.0
7.511809999999969,0.1,0.1,-0.4,0.4,
7.521619999999984,0.1,0.1,-0.4,0.4,
7.531429999999887,-1.2,-0.9,-0.3,,0.45
7.541159999999991,-1.2,-0.9,-0.3,,0.45
7.550969999999893,-0.1,-0.1,0.1,1.2,
7.560789999999997,-0.1,-0.1,0.1,,0.68
7.570599999999899,0.2,0.1,0.5,,0.77
7.580409999999915,0.2,0.1,0.5,0.2,
7.590229999999906,-0.3,0.6,0.3,,0.41
7.600039999999922,-0.3,0.6,0.3,,0.41
7.609849999999938,-0.3,0.6,0.3,,1.32
7.619669999999928,0.2,-0.4,0.0,,1.32
7.629479999999944,0.2,-0.4,0.0,,1.32
7.63928999999996,-0.8,0.7,-0.3,3.6,
7.649109999999951,-0.8,0.7,-0.3,,0.77
7.658919999999966,0.0,0.4,-0.3,,0.68
7.668649999999957,0.0,0.4,-0.3,,0.68
7.678459999999973,-0.6,0.6,0.4,,0.86
7.688279999999963,-0.6,0.6,0.4,,0.86
7.698089999999979,0.2,-0.4,0.4,,0.54
7.707899999999995,0.2,-0.4,0.4,,0.54
7.717719999999986,-0.5,-0.1,1.3,,1.46
7.727529999999888,-0.5,-0.1,1.3,,1.46
7.737339999999904,0.2,0.0,0.0,,1.18
7.747159999999894,0.2,0.0,0.0,,1.18
7.75696999999991,0.0,0.3,-0.6,,0.36
7.766779999999926,0.0,0.3,-0.6,,0.36
7.7765099999999165,0.5,0.4,-0.4,,1.0
7.786319999999932,0.5,0.4,-0.4,,1.0
7.796139999999923,0.5,0.4,-0.4,,1.09
7.805949999999939,-0.2,0.6,0.3,3.6,
7.815759999999955,-0.2,0.6,0.3,,1.09
7.825579999999945,-0.1,-0.1,0.4,,0.68
7.835389999999961,-0.1,-0.1,0.4,,0.68
7.845199999999977,0.1,0.2,0.5,,1.14
7.855019999999968,0.1,0.2,0.5,,1.14
7.864829999999984,0.2,0.8,-1.6,-2.0,
7.874639999999999,0.2,0.8,-1.6,,0.22
7.88445999999999,0.7,0.3,0.2,,1.64
7.894269999999892,0.7,0.3,0.2,,1.64
7.903999999999996,-0.6,1.0,0.4,-1.8,
7.9138099999998985,-0.6,1.0,0.4,,0.36
7.923619999999914,-1.2,-0.1,0.1,,0.54
7.933439999999905,-1.2,-0.1,0.1,2.2,
7.943249999999921,0.3,-0.3,0.3,,0.36
7.953059999999937,0.3,-0.3,0.3,,0.36
7.962879999999927,-1.5,0.3,-1.5,,1.09
7.972689999999943,-1.5,0.3,-1.5,,1.09
7.982499999999959,-0.2,-0.3,0.0,,1.64
7.99231999999995,-0.2,-0.3,0.0,0.4,
8.002129999999966,-0.2,-0.3,0.0,,1.46
8.011859999999956,0.4,-0.6,-1.4,,1.46
8.021669999999972,0.4,-0.6,-1.4,,1.46
8.031489999999962,-0.6,-0.7,0.1,,1.96
8.041299999999978,-0.6,-0.7,0.1,,1.96
8.051109999999994,0.4,0.0,-0.5,-3.8,
8.060929999999985,0.4,0.0,-0.5,,1.78
8.070739999999887,-1.6,-1.6,1.4,,0.36
8.080549999999903,-1.6,-1.6,1.4,,0.36
8.090369999999893,0.1,1.4,-0.1,,1.46
8.10017999999991,0.1,1.4,-0.1,,1.46
8.109989999999925,1.0,0.2,0.2,,0.36
8.119809999999916,1.0,0.2,0.2,,0.36
8.129619999999932,-0.6,0.4,-0.5,,0.36
8.139349999999922,-0.6,0.4,-0.5,,0.36
8.149159999999938,21.6,12.4,-4.5,,0.68
8.158969999999954,21.6,12.4,-4.5,,0.68
8.168789999999944,15.7,4.3,14.1,,1.14
8.17859999999996,15.7,4.3,14.1,,1.14
8.188409999999976,15.7,4.3,14.1,,0.04
8.198229999999967,0.4,5.6,-3.6,,0.04
8.208039999999983,0.4,5.6,-3.6,-23.0,
8.217849999999999,0.1,-0.1,0.9,,0.36
8.22766999999999,0.1,-0.1,0.9,,0.36
8.237479999999891,0.7,0.9,0.4,,0.36
8.247209999999995,0.7,0.9,0.4,,0.36
8.257019999999898,-0.7,0.2,0.5,,0.73
8.266839999999888,-0.7,0.2,0.5,,0.73
8.276649999999904,-0.2,0.2,0.0,,0.54
8.28645999999992,-0.2,0.2,0.0,,0.54
8.29627999999991,0.4,0.3,1.5,,1.96
8.306089999999926,0.4,0.3,1.5,,1.96
8.315899999999942,-0.3,-0.1,0.4,-6.8,
8.325719999999933,-0.3,-0.1,0.4,,1.09
8.335529999999949,0.2,0.3,0.1,,0.82
8.345339999999965,0.2,0.3,0.1,,0.82
8.355069999999955,-0.8,0.4,-0.4,,0.54
8.364879999999971,-0.8,0.4,-0.4,,0.54
8.374699999999962,0.4,0.5,0.2,,1.0
8.384509999999977,0.4,0.5,0.2,,1.0
8.394319999999993,0.4,0.5,0.2,,1.0
8.404139999999984,0.1,0.4,-0.6,3.6,
8.41395,0.1,0.4,-0.6,,0.68
8.423759999999902,0.2,0.1,0.3,,0.04
8.433579999999893,0.2,0.1,0.3,-2.0,
8.443389999999908,0.3,0.2,0.3,,0.77
8.453199999999924,0.3,0.2,0.3,,0.77
8.463019999999915,-1.2,0.1,0.2,0.0,
8.47282999999993,-1.2,0.1,0.2,,1.09
8.482559999999921,0.4,-1.0,0.4,,0.36
8.492369999999937,0.4,-1.0,0.4,,0.36
8.502179999999953,-0.5,-0.3,-0.1,,0.68
8.511999999999944,-0.5,-0.3,-0.1,,0.68
8.52180999999996,0.1,0.3,-0.4,,0.09
8.531619999999975,0.1,0.3,-0.4,,0.09
8.541439999999966,0.4,-0.8,0.3,0.8,
8.551249999999982,0.4,-0.8,0.3,,0.68
8.561059999999998,0.1,-0.6,-0.1,1.2,
8.570879999999988,0.1,-0.6,-0.1,,0.68
8.58068999999989,0.1,-0.6,-0.1,,1.64
8.590499999999906,-0.3,0.6,-0.1,,1.64
8.600229999999897,-0.3,0.6,-0.1,,1.64
8.610049999999887,-0.4,-0.6,-0.1,,0.77
8.619859999999903,-0.4,-0.6,-0.1,,0.77
8.62966999999992,-0.6,1.3,-0.1,,1.96
8.63948999999991,-0.6,1.3,-0.1,,1.96
8.649299999999926,1.3,-0.4,0.0,,1.64
8.659109999999941,1.3,-0.4,0.0,,1.64
8.668929999999932,-0.7,1.3,0.2,4.0,
8.678739999999948,-0.7,1.3,0.2,,1.5
8.688549999999964,0.2,-0.2,-0.1,,1.91
8.698369999999954,0.2,-0.2,-0.1,-1.0,
8.70817999999997,0.2,0.1,0.0,,0.68
8.717989999999986,0.2,0.1,0.0,,0.68
8.727719999999977,-0.6,0.0,-0.5,0.6,
8.737529999999992,-0.6,0.0,-0.5,,0.54
8.747349999999983,-0.2,0.6,0.1,,1.96
8.757159999999999,-0.2,0.6,0.1,0.4,
8.766969999999901,0.2,0.2,0.5,,1.64
8.776789999999892,0.2,0.2,0.5,,1.64
8.786599999999908,0.2,0.2,0.5,,0.36
8.796409999999923,1.0,-0.2,0.2,,0.36
8.806229999999914,1.0,-0.2,0.2,,0.36
8.81603999999993,0.1,0.1,-0.2,,0.36
8.825849999999946,0.1,0.1,-0.2,0.8,
8.835669999999936,0.3,0.0,1.5,,0.36
8.845479999999952,0.3,0.0,1.5,,0.36
8.855209999999943,-0.5,0.5,-0.1,,1.64
8.865019999999959,-0.5,0.5,-0.1,,1.64
8.87483999999995,-0.1,-0.2,-0.3,,0.54
8.884649999999965,-0.1,-0.2,-0.3,3.0,
8.894459999999981,0.4,1.2,0.0,,0.82
8.904279999999972,0.4,1.2,0.0,,0.82
8.914089999999987,0.2,-1.0,0.4,,1.96
8.92389999999989,0.2,-1.0,0.4,,1.96
8.933719999999994,1.3,-0.2,-0.3,,0.95
8.943529999999896,1.3,-0.2,-0.3,,0.95
8.953339999999912,-0.1,-0.3,0.8,,1.91
8.963069999999902,-0.1,-0.3,0.8,,1.91
8.972969999999918,-0.1,-0.3,0.8,,1.96
8.982699999999909,-0.2,-0.6,0.3,,1.96
8.992509999999925,-0.2,-0.6,0.3,,1.96
9.00231999999994,0.3,0.3,-0.2,,1.27
9.012139999999931,0.3,0.3,-0.2,,1.27
9.021949999999947,0.1,-0.2,-0.1,,1.05
9.031759999999963,0.1,-0.2,-0.1,,1.05
9.041579999999954,-0.8,-0.6,-0.2,,1.78
9.05138999999997,-0.8,-0.6,-0.2,,1.78
9.061199999999985,-0.4,0.2,-0.4,,1.0
9.071019999999976,-0.4,0.2,-0.4,,1.0
9.080829999999992,0.7,-0.3,-0.3,-2.0,
9.090639999999894,0.7,-0.3,-0.3,,1.32
9.100369999999998,-0.2,0.9,0.2,,0.82
9.1101799999999,-0.2,0.9,0.2,3.6,
9.11999999999989,-0.3,0.0,-0.4,,1.46
9.129809999999907,-0.3,0.0,-0.4,,1.46
9.139619999999923,-0.8,-0.6,-0.6,,1.5
9.149439999999913,-0.8,-0.6,-0.6,,1.5
9.159249999999929,-0.8,-0.6,-0.6,,1.09
9.169059999999945,-0.3,0.2,-0.9,-2.0,
9.178879999999936,-0.3,0.2,-0.9,,1.09
9.188689999999951,-0.3,0.0,0.3,,0.54
9.198499999999967,-0.3,0.0,0.3,0.8,
9.208319999999958,-0.2,0.1,-0.4,,0.73
9.218129999999974,-0.2,0.1,-0.4,,0.73
9.227859999999964,-0.2,0.3,1.5,,1.64
9.23766999999998,-0.2,0.3,1.5,0.4,
9.24748999999997,0.2,-0.9,0.6,,0.36
9.257299999999987,0.2,-0.9,0.6,,0.36
9.267109999999889,0.3,-0.1,1.5,,0.54
9.276929999999993,0.3,-0.1,1.5,,0.54
9.286739999999895,0.1,-0.3,0.0,,0.73
9.296549999999911,0.1,-0.3,0.0,1.6,
9.306369999999902,0.8,0.0,-0.1,,1.46
9.316179999999918,0.8,0.0,-0.1,,1.46
9.325989999999933,0.7,0.3,0.2,,0.36
9.335809999999924,0.7,0.3,0.2,,0.36
9.34552999999994,-0.3,0.2,-0.4,,0.22
9.35534999999993,-0.3,0.2,-0.4,,0.22
9.365159999999946,-0.3,0.2,-0.4,,0.77
9.374969999999962,0.9,0.0,1.5,,0.77
9.384789999999953,0.9,0.0,1.5,,0.77
9.394599999999969,0.1,0.9,-0.1,,1.27
9.404409999999984,0.1,0.9,-0.1,,1.27
9.414229999999975,0.9,0.6,-1.0,,1.96
9.42403999999999,0.9,0.6,-1.0,,1.96
9.433849999999893,-0.1,-0.3,0.1,3.4,
9.443669999999997,-0.1,-0.3,0.1,,0.86
9.4534799999999,0.6,-0.8,0.1,,0.41
9.46320999999989,0.6,-0.8,0.1,3.0,
9.473019999999906,-1.4,0.5,-0.4,,0.36
9.482839999999896,-1.4,0.5,-0.4,,0.36
9.492649999999912,0.3,-1.0,-0.6,4.8,
9.502459999999928,0.3,-1.0,-0.6,,0.91
9.512279999999919,-0.2,-0.7,-0.9,,1.91
9.522089999999935,-0.2,-0.7,-0.9,-2.4,
9.53189999999995,0.3,0.5,-0.1,2.2,
9.541719999999941,0.3,0.5,-0.1,,0.68
9.551529999999957,0.6,-0.8,0.0,3.8,
9.561339999999973,0.6,-0.8,0.0,,0.91
9.571159999999963,0.6,-0.8,0.0,,0.91
9.58087999999998,-1.3,-1.0,-0.5,,0.68
9.59069999999997,-1.3,-1.0,-0.5,3.0,
9.600509999999986,-0.7,-1.5,-0.6,,0.73
9.610319999999888,-0.7,-1.5,-0.6,,0.73
9.620139999999992,-0.3,-0.1,1.4,,1.78
9.629949999999894,-0.3,-0.1,1.4,,1.78
9.63975999999991,-0.3,-0.5,-0.2,,1.14
9.6495799999999,-0.3,-0.5,-0.2,0.2,
9.659389999999917,-0.6,0.2,0.4,-3.4,
9.669199999999933,-0.6,0.2,0.4,,1.09
9.679019999999923,-1.4,-0.8,-0.1,,1.64
9.688829999999939,-1.4,-0.8,-0.1,,1.64
9.698639999999955,0.2,1.3,-0.4,,1.64
9.708369999999945,0.2,1.3,-0.4,,1.64
9.718179999999961,0.4,0.4,1.5,-0.6,
9.727999999999952,0.4,0.4,1.5,-0.6,
9.737809999999968,0.4,-0.1,0.0,,1.64
9.747619999999984,0.4,-0.1,0.0,,1.64
9.757439999999974,0.4,-0.1,0.0,,0.04
9.76724999999999,-1.0,0.2,0.2,,0.04
9.777059999999892,-1.0,0.2,0.2,,0.04
9.786879999999996,0.6,-0.3,-0.3,3.0,
9.796689999999899,0.6,-0.3,-0.3,,0.68
9.806499999999915,0.6,0.3,0.0,,0.68
9.816319999999905,0.6,0.3,0.0,3.6,
9.826129999999921,0.6,-0.1,0.6,,0.68
9.835939999999937,0.6,-0.1,0.6,,0.68
9.845669999999927,0.2,0.4,-0.2,-2.0,
9.855489999999918,0.2,0.4,-0.2,,0.54
9.865299999999934,0.6,0.1,0.1,,1.96
9.87510999999995,0.6,0.1,0.1,-2.4,
9.88492999999994,-0.1,-0.1,0.1,,1.64
9.894739999999956,-0.1,-0.1,0.1,,1.64
9.904549999999972,0.8,0.4,-0.5,,0.54
9.914369999999963,0.8,0.4,-0.5,,0.54
9.924179999999978,0.2,0.0,1.2,,-0.63
9.933989999999994,0.2,0.0,1.2,,-0.63
9.943809999999985,0.2,0.0,1.2,,0.68
9.953619999999887,0.1,0.0,0.4,,0.68
9.963429999999903,0.1,0.0,0.4,,0.68
9.973159999999893,-1.6,0.1,0.4,,1.0
9.98296999999991,-1.6,0.1,0.4,,1.0
9.9927899999999,-0.2,-1.3,-0.2,,1.64
10.002599999999916,-0.2,-1.3,-0.2,-3.8,
10.012409999999932,-1.3,0.1,0.2,-3.8,
10.022229999999922,-1.3,0.1,0.2,,1.78
10.032039999999938,0.1,0.3,-0.1,,1.0
10.041849999999954,0.1,0.3,-0.1,,1.0
10.051669999999945,-0.6,-0.2,0.3,,0.73
10.06147999999996,-0.6,-0.2,0.3,,0.73
10.071289999999976,1.1,1.2,-0.3,3.0,
10.081109999999967,1.1,1.2,-0.3,3.0,
10.090839999999957,0.1,-1.5,-0.3,,0.36
10.100649999999973,0.1,-1.5,-0.3,,0.36
10.11045999999999,-0.5,-0.6,1.3,,0.68
10.12027999999998,-0.5,-0.6,1.3,,0.68
10.130089999999996,0.3,-0.1,0.1,,1.14
10.139899999999898,0.3,-0.1,0.1,3.0,
10.149719999999888,0.3,-0.1,0.1,,1.0
10.159529999999904,0.2,-0.1,-0.5,,1.0
10.16933999999992,0.2,-0.1,-0.5,3.0,
10.17915999999991,-0.3,-0.5,-0.1,,1.46
10.188969999999927,-0.3,-0.5,-0.1,,1.46
10.198779999999942,-0.8,0.0,0.4,3.0,
10.208599999999933,-0.8,0.0,0.4,,1.09
10.218319999999949,0.5,0.2,1.1,,1.46
10.22813999999994,0.5,0.2,1.1,1.8,
10.237949999999955,-0.6,1.3,-0.5,,0.77
10.247759999999971,-0.6,1.3,-0.5,,0.77
10.257579999999962,0.3,0.0,1.5,,0.36
10.267389999999978,0.3,0.0,1.5,,0.36
10.277199999999993,0.6,-0.1,-0.2,,0.41
10.287019999999984,0.6,-0.1,-0.2,,0.41
10.29683,0.1,0.9,-0.3,,0.82
10.306639999999902,0.1,0.9,-0.3,,0.82
10.316459999999893,0.4,-0.5,1.5,,1.14
10.326269999999909,0.4,-0.5,1.5,,1.14
10.336079999999924,0.4,-0.5,1.5,,0.77
10.345899999999915,0.3,-0.2,-0.2,,0.77
10.35561999999993,0.3,-0.2,-0.2,-4.4,
10.365439999999921,-0.5,-0.3,-0.6,,1.46
10.375249999999937,-0.5,-0.3,-0.6,,1.46
10.385059999999953,0.1,-0.3,0.2,,1.32
10.394879999999944,0.1,-0.3,0.2,,1.32
10.40468999999996,0.4,0.4,0.1,,0.36
10.414499999999975,0.4,0.4,0.1,,0.36
10.424319999999966,-0.1,0.0,-0.6,-0.6,
10.434129999999982,-0.1,0.0,-0.6,,0.22
10.443939999999998,0.8,-1.3,-0.1,,0.54
10.453759999999988,0.8,-1.3,-0.1,,0.54
10.46356999999989,0.2,-0.3,-0.3,,0.41
10.473379999999906,0.2,-0.3,-0.3,,0.41
10.483109999999897,0.5,-0.2,0.6,-1.0,
10.492929999999888,0.5,-0.2,0.6,-1.0,
10.502739999999903,0.7,-0.7,-0.2,,0.73
10.51254999999992,0.7,-0.7,-0.2,,0.73
10.52236999999991,0.0,0.2,0.3,,0.77
10.532179999999926,0.0,0.2,0.3,,0.77
10.541989999999942,0.0,0.2,0.3,1.6,
10.551809999999932,-0.4,0.5,0.5,1.6,
10.561619999999948,-0.4,0.5,0.5,,0.41
10.571429999999964,1.5,0.5,-0.1,,0.36
10.581249999999955,1.5,0.5,-0.1,0.8,
10.59105999999997,0.3,-0.1,0.3,,0.86
10.60078999999996,0.3,-0.1,0.3,,0.86
10.610599999999977,-1.3,0.5,-0.3,0.2,
10.620409999999993,-1.3,0.5,-0.3,,0.36
10.630229999999983,0.2,0.1,-0.2,,0.77
10.640039999999999,0.2,0.1,-0.2,-1.6,
10.649849999999901,0.0,-0.3,-0.4,,0.36
10.659669999999892,0.0,-0.3,-0.4,,0.36
10.669479999999908,-0.1,1.0,0.1,,0.54
10.679289999999924,-0.1,1.0,0.1,,0.54
10.689109999999914,-0.6,-0.2,-0.2,-0.6,
10.69891999999993,-0.6,-0.2,-0.2,,0.68
10.708729999999946,-0.1,-0.8,-0.1,0.4,
10.718459999999936,-0.1,-0.8,-0.1,0.4,
10.728279999999927,-0.1,-0.8,-0.1,,1.14
10.738089999999943,-0.1,0.1,-0.3,,1.14
10.747899999999959,-0.1,0.1,-0.3,,1.14
10.75771999999995,1.0,0.3,0.4,,0.68
10.767529999999965,1.0,0.3,0.4,,0.68
10.777339999999981,0.2,0.1,-0.1,3.0,
10.787159999999972,0.2,0.1,-0.1,,0.36
10.796969999999988,1.5,0.4,-0.5,,1.09
10.80677999999989,1.5,0.4,-0.5,,1.09
10.816599999999994,0.5,0.0,0.4,,1.0
10.826409999999896,0.5,0.0,0.4,,1.0
10.836219999999912,-0.2,-0.1,-0.5,,0.68
10.846039999999903,-0.2,-0.1,-0.5,3.6,
10.855759999999918,0.5,0.2,-0.6,,1.09
10.865579999999909,0.5,0.2,-0.6,,1.09
10.875389999999925,-0.1,0.6,-0.2,,1.0
10.88519999999994,-0.1,0.6,-0.2,,1.0
10.895019999999931,-0.5,1.0,-0.5,,1.64
10.904829999999947,-0.5,1.0,-0.5,0.4,
10.914639999999963,-0.1,0.2,0.2,,1.32
10.924459999999954,-0.1,0.2,0.2,,1.32
10.93426999999997,-0.1,0.2,0.2,,1.09
10.944079999999985,0.1,0.1,1.5,,1.09
10.953899999999976,0.1,0.1,1.5,,1.09
10.963709999999992,0.8,0.5,0.7,,1.46
10.973519999999894,0.8,0.5,0.7,,1.46
10.983249999999998,0.4,1.0,0.7,,0.73
10.9930599999999,0.4,1.0,0.7,,0.73
11.002879999999891,0.1,-0.4,0.3,,0.68
11.012689999999907,0.1,-0.4,0.3,,0.68
11.022499999999923,0.2,0.4,-0.4,,0.54
11.032319999999913,0.2,0.4,-0.4,,0.54
11.04212999999993,0.0,0.2,1.4,0.4,
11.051939999999945,0.0,0.2,1.4,,1.64
11.061759999999936,0.0,0.6,-0.4,,0.54
11.071569999999952,0.0,0.6,-0.4,5.0,
11.081379999999967,-0.2,-0.2,0.1,,0.41
11.091199999999958,-0.2,-0.2,0.1,,0.41
11.100929999999948,0.4,0.1,-0.5,,1.09
11.110739999999964,0.4,0.1,-0.5,,1.09
11.12054999999998,0.4,0.1,-0.5,,0.36
11.13036999999997,0.0,-0.6,0.1,5.0,
11.140179999999987,0.0,-0.6,0.1,,0.36
11.149989999999889,-1.3,0.8,-0.1,,1.09
11.159809999999993,-1.3,0.8,-0.1,,1.09
11.169619999999895,0.1,0.1,0.4,,0.36
11.179429999999911,0.1,0.1,0.4,,0.36
11.189249999999902,-0.3,-0.6,0.2,,0.54
11.199059999999918,-0.3,-0.6,0.2,-3.4,
11.208869999999933,0.5,0.0,0.0,,0.36
11.218599999999924,0.5,0.0,0.0,,0.36
11.22840999999994,0.1,-1.2,0.1,,1.0
11.23822999999993,0.1,-1.2,0.1,,1.0
11.248039999999946,-1.3,-0.9,-0.4,,1.96
11.257849999999962,-1.3,-0.9,-0.4,-3.8,
11.267669999999953,0.2,1.4,0.0,0.8,
11.277479999999969,0.2,1.4,0.0,,0.77
11.287289999999985,0.6,-0.3,1.4,,0.36
11.297109999999975,0.6,-0.3,1.4,,0.36
11.306919999999991,-0.8,-0.7,-0.3,,1.64
11.316729999999893,-0.8,-0.7,-0.3,,1.64
11.326549999999997,-0.8,-0.7,-0.3,,0.77
11.336279999999988,0.1,0.3,0.5,,0.77
11.34608999999989,0.1,0.3,0.5,,0.77
11.355899999999906,1.5,-0.4,-0.5,,0.54
11.365719999999897,1.5,-0.4,-0.5,,0.54
11.375529999999912,-0.3,-0.4,0.1,,1.96
11.385339999999928,-0.3,-0.4,0.1,,1.96
11.395159999999919,-0.2,0.1,0.1,0.8,
11.404969999999935,-0.2,0.1,0.1,,0.95
11.41477999999995,0.2,-0.1,-0.4,,0.77
11.424599999999941,0.2,-0.1,-0.4,3.6,
11.434409999999957,-0.6,-0.2,-0.4,,0.36
11.444219999999973,-0.6,-0.2,-0.4,,0.36
11.454039999999964,-0.4,0.2,0.1,-0.6,
11.46375999999998,-0.4,0.2,0.1,,1.0
11.47357999999997,0.5,0.3,0.5,,1.46
11.483389999999986,0.5,0.3,0.5,-6.6,
11.493199999999888,-0.2,0.2,1.2,,1.64
11.503019999999992,-0.2,0.2,1.2,,1.64
11.512829999999894,-0.2,0.2,1.2,-2.0,
11.52263999999991,-0.2,0.1,-0.1,,0.54
11.532459999999901,-0.2,0.1,-0.1,,0.54
11.542269999999917,0.5,0.1,-0.3,,1.96
11.552079999999933,0.5,0.1,-0.3,1.8,
11.561899999999923,-0.9,0.3,0.4,,0.41
11.571619999999939,-0.9,0.3,0.4,,0.41
11.581519999999955,0.2,0.0,0.0,,1.27
11.591249999999945,0.2,0.0,0.0,,1.27
11.601059999999961,0.3,-0.1,0.3,,1.46
11.610879999999952,0.3,-0.1,0.3,1.8,
11.620689999999968,-0.1,0.0,0.7,,1.14
11.630499999999984,-0.1,0.0,0.7,,1.14
11.640319999999974,0.1,-0.3,0.5,,1.32
11.65012999999999,0.1,-0.3,0.5,,1.32
11.659939999999892,-1.4,-0.4,0.0,,0.54
11.669759999999997,-1.4,-0.4,0.0,,0.54
11.679569999999899,0.3,1.5,0.0,1.2,
11.689379999999915,0.3,1.5,0.0,,0.09
11.699109999999905,-23.1,-23.5,8.0,,0.68
11.708929999999896,-23.1,-23.5,8.0,,0.68
11.718739999999912,-23.1,-23.5,8.0,,0.18
11.728549999999927,-9.9,8.0,32.2,,0.18
11.738369999999918,-9.9,8.0,32.2,,0.18
11.748179999999934,-3.0,8.7,17.3,-75.0,
11.75798999999995,-3.0,8.7,17.3,,1.09
11.76780999999994,-0.3,7.0,7.0,,0.73
11.777619999999956,-0.3,7.0,7.0,-87.8,
11.787429999999972,-1.9,-0.4,0.5,,0.04
11.797249999999963,-1.9,-0.4,0.5,,0.04
11.807059999999979,0.4,-0.8,0.7,-78.8,
11.816869999999994,0.4,-0.8,0.7,,0.41
11.826689999999985,1.2,0.6,-0.2,,0.68
11.836409999999887,1.2,0.6,-0.2,-72.2,
11.846229999999991,-0.2,-0.6,0.7,,0.0
11.856039999999894,-0.2,-0.6,0.7,,0.0
11.86584999999991,-0.9,-0.8,0.4,,0.77
11.8756699999999,-0.9,-0.8,0.4,,0.77
11.885479999999916,-0.1,-1.3,-0.6,,0.36
11.895289999999932,-0.1,-1.3,-0.6,-61.0,
11.905109999999922,-0.1,-1.3,-0.6,,1.09
11.914919999999938,0.4,-0.2,-1.6,,1.09
11.924729999999954,0.4,-0.2,-1.6,,1.09
11.934549999999945,0.1,-0.7,-0.3,,0.36
11.94435999999996,0.1,-0.7,-0.3,,0.36
11.954169999999976,-0.6,0.4,-0.7,,1.27
11.963989999999967,-0.6,0.4,-0.7,-52.6,
11.973719999999958,0.3,-0.4,0.0,,1.14
11.983529999999973,0.3,-0.4,0.0,,1.14
11.99333999999999,-0.7,1.0,0.4,,0.77
12.00315999999998,-0.7,1.0,0.4,,0.77
12.012969999999996,1.4,0.1,1.3,,0.04
12.022779999999898,1.4,0.1,1.3,-41.4,
12.032599999999888,-0.5,0.9,-0.4,,0.73
12.042409999999904,-0.5,0.9,-0.4,,0.73
12.05221999999992,-0.5,0.2,0.2,,1.64
12.06203999999991,-0.5,0.2,0.2,,1.64
12.071849999999927,0.4,-0.2,0.1,,0.73
12.081659999999943,0.4,-0.2,0.1,-36.4,
12.091479999999933,-0.3,0.3,-0.3,,0.95
12.101199999999949,-0.3,0.3,-0.3,,0.95
12.11101999999994,-0.3,0.3,-0.3,,1.32
12.120829999999955,1.4,0.2,0.0,,1.32
12.130639999999971,1.4,0.2,0.0,,1.32
12.140459999999962,0.7,1.4,0.5,,1.64
12.150269999999978,0.7,1.4,0.5,-32.0,
12.160079999999994,1.1,-0.6,-0.1,,0.36
12.169899999999984,1.1,-0.6,-0.1,,0.36
12.17971,-0.2,-0.3,0.4,,0.54
12.189519999999902,-0.2,-0.3,0.4,,0.54
12.199339999999893,0.6,-0.8,0.2,,0.68
12.209059999999909,0.6,-0.8,0.2,,0.68
12.2188799999999,0.3,-0.6,1.1,-28.0,
12.228689999999915,0.3,-0.6,1.1,,0.09
12.23849999999993,-0.5,0.0,0.0,,0.68
12.248319999999921,-0.5,0.0,0.0,-27.0,
12.258129999999937,0.6,0.2,0.0,,0.59
12.267939999999953,0.6,0.2,0.0,,0.59
12.277759999999944,-0.3,0.2,0.6,,1.09
12.28756999999996,-0.3,0.2,0.6,,1.09
12.297379999999976,-0.3,0.2,0.6,,0.41
12.307199999999966,-0.3,0.2,0.2,-25.8,
12.317009999999982,-0.3,0.2,0.2,-25.8,
12.326819999999998,0.4,0.0,0.3,,0.82
12.336639999999989,0.4,0.0,0.3,,0.82
12.34644999999989,-0.3,-0.2,0.3,,1.09
12.356179999999995,-0.3,-0.2,0.3,,1.09
12.365989999999897,0.2,-0.3,-0.8,,1.64
12.375809999999888,0.2,-0.3,-0.8,-19.4,
12.385619999999903,0.1,-0.1,0.1,,1.09
12.39542999999992,0.1,-0.1,0.1,,1.09
12.40524999999991,0.1,-0.2,-0.3,,1.32
12.415059999999926,0.1,-0.2,-0.3,,1.32
12.424869999999942,-0.6,0.5,-0.1,,0.77
12.434689999999932,-0.6,0.5,-0.1,-14.0,
12.444499999999948,0.3,-0.3,0.5,,0.86
12.454309999999964,0.3,-0.3,0.5,,0.86
12.464129999999955,-0.6,0.1,-0.4,,0.68
12.47384999999997,-0.6,0.1,-0.4,,0.68
12.483669999999961,0.6,0.0,-0.1,,0.41
12.493479999999977,0.6,0.0,-0.1,,0.41
12.503289999999993,0.6,0.0,-0.1,,0.36
12.513109999999983,0.5,-0.8,0.4,,0.36
12.52292,0.5,-0.8,0.4,,0.36
12.532729999999901,-1.0,-1.0,0.3,,1.0
12.542549999999892,-1.0,-1.0,0.3,,1.0
12.552359999999908,0.3,0.2,-0.2,,0.54
12.562169999999924,0.3,0.2,-0.2,,0.54
12.571989999999914,-0.8,-1.0,0.0,-14.0,
12.58179999999993,-0.8,-1.0,0.0,,0.63
12.59152999999992,-0.3,0.0,-0.2,,1.0
12.601339999999936,-0.3,0.0,-0.2,,1.0
12.611159999999927,0.1,0.3,-0.1,,0.36
12.620969999999943,0.1,0.3,-0.1,,0.36
12.630779999999959,-0.2,-0.2,-0.3,-9.6,
12.64059999999995,-0.2,-0.2,-0.3,,1.64
12.650409999999965,-1.5,-0.6,-0.2,,-0.09
12.660219999999981,-1.5,-0.6,-0.2,-10.4,
12.670039999999972,0.1,0.4,-0.4,,0.54
12.679849999999988,0.1,0.4,-0.4,,0.54
12.68965999999989,0.1,0.4,-0.4,-6.6,
12.699479999999994,0.4,-0.3,0.2,,1.64
12.709289999999896,0.4,-0.3,0.2,,1.64
12.719019999999887,-0.1,0.3,0.2,-7.0,
12.728829999999903,-0.1,0.3,0.2,-7.0,
12.738639999999918,0.6,0.3,0.2,,0.54
12.748459999999909,0.6,0.3,0.2,,0.54
12.758269999999925,0.6,0.1,0.4,-9.6,
12.76807999999994,0.6,0.1,0.4,,0.41
12.777899999999931,-0.3,0.4,0.1,,1.64
12.787709999999947,-0.3,0.4,0.1,-9.6,
12.797519999999963,1.3,0.2,-0.1,,1.37
12.807339999999954,1.3,0.2,-0.1,,1.37
12.81714999999997,-0.1,-1.2,0.1,,1.64
12.82687999999996,-0.1,-1.2,0.1,,1.64
12.836689999999976,-1.4,0.4,1.5,,0.36
12.846499999999992,-1.4,0.4,1.5,-2.2,
12.856319999999982,-0.1,-0.2,1.0,-1.8,
12.866129999999998,-0.1,-0.2,1.0,,0.18
12.8759399999999,-0.6,-0.2,-1.2,-3.8,
12.885759999999891,-0.6,-0.2,-1.2,,1.96
12.895569999999907,-0.6,-0.2,-1.2,,0.41
12.905379999999923,0.6,0.7,0.2,,0.41
12.915199999999913,0.6,0.7,0.2,,0.41
12.92500999999993,-0.5,-0.6,0.2,-2.0,
12.934819999999945,-0.5,-0.6,0.2,,0.45
12.944549999999936,0.5,-0.7,0.1,,0.5
12.954369999999926,0.5,-0.7,0.1,,0.5
12.964179999999942,0.2,0.8,0.0,,1.64
12.973989999999958,0.2,0.8,0.0,,1.64
12.983809999999949,-1.3,-0.6,1.4,-5.4,
12.993619999999964,-1.3,-0.6,1.4,,0.59
13.00342999999998,-0.3,-0.4,-0.1,,0.95
13.013249999999971,-0.3,-0.4,-0.1,-7.6,
13.023059999999987,0.7,0.0,0.0,,1.64
13.032869999999889,0.7,0.0,0.0,,1.64
13.042689999999993,0.7,-0.5,-0.4,,0.68
13.052499999999895,0.7,-0.5,-0.4,-0.6,
13.06223,-0.8,0.7,-0.1,,0.36
13.072039999999902,-0.8,0.7,-0.1,-3.4,
13.081849999999918,-0.8,0.7,-0.1,,0.27
13.091669999999908,0.5,-0.2,0.6,,0.27
13.101479999999924,0.5,-0.2,0.6,,0.27
13.11128999999994,0.3,-0.1,0.6,-7.2,
13.12110999999993,0.3,-0.1,0.6,,0.95
13.130919999999946,-0.1,-0.2,-0.2,,0.77
13.140729999999962,-0.1,-0.2,-0.2,-4.8,
13.150549999999953,0.5,0.3,-0.2,,0.36
13.160359999999969,0.5,0.3,-0.2,,0.36
13.170169999999985,0.0,0.5,0.2,-5.6,
13.179989999999975,0.0,0.5,0.2,,0.73
13.189719999999966,0.4,0.6,0.0,,1.46
13.199529999999982,0.4,0.6,0.0,-1.0,
13.209339999999997,0.1,0.4,0.1,,0.68
13.219159999999988,0.1,0.4,0.1,,0.68
13.22896999999989,0.9,-0.4,0.2,,1.46
13.238779999999906,0.9,-0.4,0.2,,1.46
13.248599999999897,0.2,1.3,0.0,,0.04
13.258409999999913,0.2,1.3,0.0,,0.04
13.268219999999928,0.7,0.1,-0.4,,0.36
13.278039999999919,0.7,0.1,-0.4,,0.36
13.287849999999935,0.7,0.1,-0.4,,0.36
13.297579999999925,0.2,0.7,0.5,,0.27
13.307479999999941,0.2,0.7,0.5,,0.27
13.317199999999957,0.2,0.2,0.2,,0.73
13.327019999999948,0.2,0.2,0.2,,0.73
13.336829999999964,0.7,0.2,0.2,-0.6,
13.34663999999998,0.7,0.2,0.2,,0.41
13.35645999999997,-0.2,-0.1,0.3,,0.68
13.366269999999986,-0.2,-0.1,0.3,,0.68
13.376079999999888,-0.1,0.8,-1.5,,1.64
13.385899999999992,-0.1,0.8,-1.5,,1.64
13.395709999999895,0.1,0.6,0.4,3.6,
13.40551999999991,0.1,0.6,0.4,,0.68
13.415339999999901,-0.4,-1.2,0.1,,1.46
13.425059999999917,-0.4,-1.2,0.1,0.0,
13.434879999999907,1.3,0.8,-0.5,,0.82
13.444689999999923,1.3,0.8,-0.5,,0.82
13.454499999999939,0.1,-1.0,-0.2,,0.77
13.46431999999993,0.1,-1.0,-0.2,-4.8,
13.474129999999946,0.1,-1.0,-0.2,,0.36
13.483939999999961,-0.1,-1.4,-0.1,,0.36
13.493759999999952,-0.1,-1.4,-0.1,-2.0,
13.503569999999968,0.2,1.3,-0.5,,1.91
13.513379999999984,0.2,1.3,-0.5,,1.91
13.523199999999974,-0.5,-0.1,-0.1,0.8,
13.53300999999999,-0.5,-0.1,-0.1,,1.0
13.542819999999892,-0.2,-0.9,-0.1,,0.77
13.552549999999997,-0.2,-0.9,-0.1,-2.6,
13.562369999999987,0.0,-1.2,0.0,,0.91
13.57217999999989,0.0,-1.2,0.0,,0.91
13.581989999999905,0.0,-0.2,1.4,-4.0,
13.591809999999896,0.0,-0.2,1.4,,0.68
13.601619999999912,-0.2,-0.4,-0.7,,0.68
13.611429999999928,-0.2,-0.4,-0.7,-3.4,
13.621249999999918,0.6,-0.4,-0.6,,0.91
13.631059999999934,0.6,-0.4,-0.6,,0.91
13.64086999999995,0.5,-0.3,-0.4,,0.54
13.65068999999994,0.5,-0.3,-0.4,,0.54
13.660499999999956,0.0,0.3,0.2,,0.68
13.670309999999972,0.0,0.3,0.2,,0.68
13.680129999999963,0.0,0.3,0.2,,1.0
13.689849999999979,0.1,0.2,-0.2,,1.0
13.69966999999997,0.1,0.2,-0.2,,1.0
13.709479999999985,0.0,-0.1,-0.3,,1.64
13.719289999999887,0.0,-0.1,-0.3,,1.64
13.729109999999991,-0.3,-0.1,-0.2,,1.64
13.738919999999894,-0.3,-0.1,-0.2,-1.0,
13.74872999999991,0.9,0.7,-0.1,3.6,
13.7585499999999,0.9,0.7,-0.1,,0.36
13.768359999999916,0.8,-0.4,-0.2,,0.77
13.778169999999932,0.8,-0.4,-0.2,,0.77
13.787989999999922,1.2,0.2,-0.5,,0.36
13.797719999999913,1.2,0.2,-0.5,,0.36
13.807529999999929,0.1,0.2,0.7,2.2,
13.817339999999945,0.1,0.2,0.7,,0.73
13.827159999999935,0.2,0.9,0.2,,1.96
13.836969999999951,0.2,0.9,0.2,,1.96
13.846779999999967,-0.3,0.0,0.1,,0.68
13.856599999999958,-0.3,0.0,0.1,,0.68
13.866409999999973,-0.3,0.0,0.1,-3.8,
13.87621999999999,-0.2,1.3,-0.1,-3.8,
13.88603999999998,-0.2,1.3,-0.1,,1.64
13.895849999999996,0.5,0.1,0.4,,0.68
13.905579999999986,0.5,0.1,0.4,-4.4,
13.915389999999888,-0.5,0.1,0.6,,0.36
13.925199999999904,-0.5,0.1,0.6,,0.36
13.935019999999895,1.2,1.1,-0.5,3.0,
13.94482999999991,1.2,1.1,-0.5,,0.54
13.954639999999927,-0.5,-1.5,0.0,,0.36
13.964459999999917,-0.5,-1.5,0.0,2.2,
13.974269999999933,-1.2,0.0,0.2,,0.86
13.984079999999949,-1.2,0.0,0.2,,0.86
13.99389999999994,-0.2,0.5,0.0,,1.64
14.003709999999955,-0.2,0.5,0.0,,1.64
14.013519999999971,0.2,-0.7,-1.5,,0.82
14.023249999999962,0.2,-0.7,-1.5,2.2,
14.033149999999978,0.0,0.2,0.4,1.6,
14.042879999999968,0.0,0.2,0.4,,1.32
14.052689999999984,0.0,0.2,0.4,5.0,
14.0625,0.4,0.3,0.0,,0.54
14.07231999999999,0.4,0.3,0.0,,0.54
14.082129999999893,-0.4,-1.0,0.1,,0.95
14.091939999999909,-0.4,-1.0,0.1,,0.95
14.1017599999999,0.5,0.3,0.3,,1.14
14.111569999999915,0.5,0.3,0.3,,1.14
14.121379999999931,1.5,0.2,-0.5,,1.96
14.131199999999922,1.5,0.2,-0.5,,1.96
14.140929999999912,-0.4,0.9,0.2,,0.68
14.150739999999928,-0.4,0.9,0.2,,0.68
14.160549999999944,-0.5,0.2,-0.5,1.6,
14.170369999999934,-0.5,0.2,-0.5,,0.73
14.18017999999995,1.1,0.4,0.0,,0.86
14.189989999999966,1.1,0.4,0.0,,0.86
14.199809999999957,-0.6,-0.2,-0.1,,1.78
14.209619999999973,-0.6,-0.2,-0.1,,1.78
14.219429999999988,-0.4,0.2,-0.5,-0.6,
14.229249999999979,-0.4,0.2,-0.5,-0.6,
14.239059999999995,0.8,0.0,-0.2,,0.36
14.248869999999897,0.8,0.0,-0.2,,0.36
14.258599999999888,0.8,0.0,-0.2,,1.64
14.268499999999904,-0.6,0.2,0.2,,1.64
14.278229999999894,-0.6,0.2,0.2,,1.64
14.28803999999991,-0.3,-0.2,0.4,2.2,
14.297849999999926,-0.3,-0.2,0.4,,0.41
14.307669999999916,0.3,0.4,-0.1,,0.68
14.317479999999932,0.3,0.4,-0.1,3.6,
14.327289999999948,0.1,0.3,0.5,,1.0
14.337109999999939,0.1,0.3,0.5,,1.0
14.346919999999955,0.1,0.5,-0.4,1.6,
14.35672999999997,0.1,0.5,-0.4,,0.73
14.366549999999961,0.1,0.4,-1.5,,0.59
14.376359999999977,0.1,0.4,-1.5,3.0,
14.386169999999993,0.3,0.4,0.1,,0.91
14.395899999999983,0.3,0.4,0.1,,0.91
14.405719999999974,-0.1,0.2,-0.1,,0.68
14.41552999999999,-0.1,0.2,-0.1,,0.68
14.425339999999892,-1.5,1.0,0.1,,0.36
14.435159999999996,-1.5,1.0,0.1,,0.36
14.444969999999898,-0.7,1.5,0.2,,0.73
14.454779999999914,-0.7,1.5,0.2,,0.73
14.464599999999905,-0.7,1.5,0.2,,0.73
14.47440999999992,-0.7,1.0,-1.4,,1.96
14.484219999999937,-0.7,1.0,-1.4,,1.96
14.494039999999927,-0.2,-0.4,0.3,,0.68
14.503849999999943,-0.2,-0.4,0.3,-0.6,
14.513579999999934,-0.7,0.8,0.5,5.0,
14.52338999999995,-0.7,0.8,0.5,,0.36
14.533199999999965,0.3,0.3,-0.2,,1.96
14.543019999999956,0.3,0.3,-0.2,,1.96
14.552829999999972,-0.3,-1.2,0.0,,1.64
14.562639999999988,-0.3,-1.2,0.0,,1.64
14.572459999999978,0.3,-0.8,-1.2,-3.8,
14.582269999999994,0.3,-0.8,-1.2,,1.64
14.592079999999896,0.2,0.4,-0.7,,0.95
14.601899999999887,0.2,0.4,-0.7,,0.95
14.611709999999903,0.0,-0.5,0.4,,1.64
14.621519999999919,0.0,-0.5,0.4,,1.64
14.63133999999991,-1.3,-0.6,-0.4,,0.41
14.641149999999925,-1.3,-0.6,-0.4,-2.6,
14.650879999999916,-1.3,-0.6,-0.4,,0.95
14.660689999999931,0.1,-1.5,-0.2,,0.95
14.670499999999947,0.1,-1.5,-0.2,0.8,
14.680319999999938,0.0,-1.0,0.6,,1.46
14.690129999999954,0.0,-1.0,0.6,,1.46
14.69993999999997,-0.6,-0.9,0.1,-0.6,
14.70975999999996,-0.6,-0.9,0.1,,0.68
14.719569999999976,-0.7,0.1,0.5,,0.36
14.729379999999992,-0.7,0.1,0.5,-2.0,
14.739199999999983,-1.2,-0.9,-0.8,,1.14
14.749009999999998,-1.2,-0.9,-0.8,,1.14
14.7588199999999,0.0,-0.9,0.2,,1.96
14.768639999999891,0.0,-0.9,0.2,,1.96
14.778369999999995,0.1,0.1,-1.5,,1.09
14.788179999999898,0.1,0.1,-1.5,-2.0,
14.797989999999913,-0.3,-1.1,0.4,,0.63
14.807809999999904,-0.3,-1.1,0.4,,0.63
14.81761999999992,0.0,0.0,-0.3,,0.54
14.827429999999936,0.0,0.0,-0.3,,0.54
14.837249999999926,0.0,0.0,-0.3,,0.36
14.847059999999942,0.2,-0.1,-0.1,,0.36
14.856869999999958,0.2,-0.1,-0.1,-3.4,
14.866689999999949,0.2,0.2,-0.3,,0.95
14.876499999999965,0.2,0.2,-0.3,,0.95
14.88630999999998,0.0,0.1,-0.9,,0.73
14.896129999999971,0.0,0.1,-0.9,,0.73
14.905849999999987,0.3,0.2,-0.1,,1.46
14.915669999999977,0.3,0.2,-0.1,,1.46
14.925479999999993,-0.5,0.1,0.0,2.2,
14.935289999999895,-0.5,0.1,0.0,,0.95
14.94511,-1.6,0.8,-0.3,,0.59
14.954919999999902,-1.6,0.8,-0.3,,0.59
14.964729999999918,0.5,0.2,0.7,,0.82
14.974549999999908,0.5,0.2,0.7,,0.82
14.984359999999924,1.1,-0.6,0.2,-3.4,
14.99416999999994,1.1,-0.6,0.2,,0.73
15.00398999999993,-0.3,0.0,0.4,,0.68
15.013799999999947,-0.3,0.0,0.4,,0.68
15.023609999999962,0.4,-0.3,0.0,,1.14
15.033339999999953,0.4,-0.3,0.0,,1.14
15.043159999999943,0.4,-0.3,0.0,-4.0,
15.05296999999996,-0.4,0.4,0.0,-4.0,
15.062779999999975,-0.4,0.4,0.0,,1.0
15.072599999999966,0.0,0.8,0.1,,0.36
15.082409999999982,0.0,0.8,0.1,-2.0,
15.092219999999998,-0.1,0.5,0.0,,1.0
15.102039999999988,-0.1,0.5,0.0,,1.0
15.11184999999989,-0.5,-1.6,0.3,3.0,
15.121659999999906,-0.5,-1.6,0.3,,0.73
15.131479999999897,0.3,0.9,-1.2,,0.68
15.141289999999913,0.3,0.9,-1.2,3.6,
15.151099999999929,0.1,0.4,0.0,,1.05
15.160829999999919,0.1,0.4,0.0,,1.05
15.170639999999935,0.4,-0.9,0.4,,0.68
15.180459999999925,0.4,-0.9,0.4,,0.68
15.190269999999941,0.5,0.7,-0.1,-6.0,
15.200079999999957,0.5,0.7,-0.1,,1.64
15.209899999999948,0.0,-1.5,0.1,-1.2,
15.219709999999964,0.0,-1.5,0.1,,0.04
15.22951999999998,0.0,-1.5,0.1,,0.36
15.23933999999997,-0.1,-0.8,-1.3,,0.36
15.249149999999986,-0.1,-0.8,-1.3,,0.36
15.258959999999888,0.3,-0.1,-0.1,,1.09
15.268779999999992,0.3,-0.1,-0.1,-2.6,
15.278589999999895,0.3,-0.6,-0.2,3.0,
15.288319999999999,0.3,-0.6,-0.2,,0.36
15.298129999999901,-0.2,-0.8,0.0,,0.73
15.307939999999917,-0.2,-0.8,0.0,,0.73
15.317759999999907,0.3,0.0,-0.1,,1.64
15.327569999999923,0.3,0.0,-0.1,,1.64
15.33737999999994,1.1,-0.1,-0.4,-6.6,
15.34719999999993,1.1,-0.1,-0.4,-6.6,
15.357009999999946,-0.4,0.8,0.1,,1.96
15.366819999999962,-0.4,0.8,0.1,,1.96
15.376639999999952,-0.5,0.0,0.0,1.6,
15.386449999999968,-0.5,0.0,0.0,,0.41
15.396259999999984,0.6,-0.1,-0.6,,1.32
15.406079999999974,0.6,-0.1,-0.6,0.4,
15.415809999999965,-0.3,0.0,0.3,,1.0
15.42561999999998,-0.3,0.0,0.3,,1.0
15.435429999999997,-0.3,0.0,0.3,,1.32
15.445249999999987,0.1,-0.2,-0.2,,1.32
15.45505999999989,0.1,-0.2,-0.2,,1.32
15.464869999999905,0.9,-0.5,0.6,,0.36
15.474689999999896,0.9,-0.5,0.6,,0.36
15.484499999999912,-0.5,1.1,-0.1,,1.0
15.494309999999928,-0.5,1.1,-0.1,,1.0
15.504129999999918,0.4,-0.7,-0.1,,0.59
15.513939999999934,0.4,-0.7,-0.1,,0.59
15.52374999999995,0.4,0.3,-0.1,,0.95
15.53347999999994,0.4,0.3,-0.1,,0.95
15.543289999999956,-0.1,0.0,0.0,0.4,
15.553109999999947,-0.1,0.0,0.0,,1.32
15.562919999999963,-40.1,-9.6,-56.0,,0.36
15.572729999999979,-40.1,-9.6,-56.0,-103.2,
15.58254999999997,28.0,10.9,13.4,,1.09
15.592359999999985,28.0,10.9,13.4,,1.09
15.602169999999887,19.0,1.7,10.2,,1.09
15.611989999999992,19.0,1.7,10.2,,1.09
15.621799999999894,19.0,1.7,10.2,,0.59
15.63160999999991,-1.2,2.9,0.9,-46.2,
15.6414299999999,-1.2,2.9,0.9,,0.59
15.65115999999989,-0.7,-0.9,-0.9,,1.27
15.660969999999907,-0.7,-0.9,-0.9,,1.27
15.670779999999922,0.7,-0.2,0.9,,0.68
15.680599999999913,0.7,-0.2,0.9,,0.68
15.690409999999929,0.5,-0.7,0.9,,0.36
15.700219999999945,0.5,-0.7,0.9,-45.6,
15.710039999999935,0.3,-0.7,-0.2,,1.46
15.719849999999951,0.3,-0.7,-0.2,,1.46
15.729659999999967,0.8,0.1,0.0,-44.2,
15.739479999999958,0.8,0.1,0.0,,0.68
15.749289999999974,0.3,0.0,-0.1,,0.86
15.75909999999999,0.3,0.0,-0.1,-41.0,
15.76882999999998,-0.5,-0.7,0.1,-33.8,
15.778639999999996,-0.5,-0.7,0.1,,0.73
15.788459999999986,0.3,-0.2,-0.1,,0.54
15.798269999999889,0.3,-0.2,-0.1,,0.54
15.808079999999904,0.2,0.1,0.2,,0.73
15.817899999999895,0.2,0.1,0.2,,0.73
15.827709999999911,0.2,0.1,0.2,,1.96
15.837519999999927,-1.4,-0.3,-0.3,,1.96
15.847339999999917,-1.4,-0.3,-0.3,,1.96
15.857149999999933,-0.4,-1.2,-0.4,,0.54
15.866959999999949,-0.4,-1.2,-0.4,,0.54
15.87677999999994,0.3,0.1,-0.1,,0.68
15.886589999999956,0.3,0.1,-0.1,,0.68
15.896319999999946,-0.8,-0.3,-0.2,-28.4,
15.906129999999962,-0.8,-0.3,-0.2,,2.28
15.915939999999978,0.4,-0.2,0.0,,0.86
15.925759999999968,0.4,-0.2,0.0,,0.86
15.935569999999984,0.9,0.1,0.4,,1.64
15.94538,0.9,0.1,0.4,,1.64
15.95519999999999,-0.5,0.9,-0.1,-27.0,
15.965009999999893,-0.5,0.9,-0.1,,1.0
15.974819999999909,0.4,0.0,-0.3,,0.54
15.9846399999999,0.4,0.0,-0.3,-20.8,
15.994449999999915,0.9,0.1,-0.1,,1.78
16.00425999999993,0.9,0.1,-0.1,,1.78
16.01407999999992,0.9,0.1,-0.1,-22.2,
16.023809999999912,-0.7,0.5,1.2,,2.1
16.033619999999928,-0.7,0.5,1.2,,2.1
16.043429999999944,0.4,-0.1,-0.5,-17.6,
16.053249999999935,0.4,-0.1,-0.5,,1.64
16.06305999999995,0.3,-0.2,-0.6,,1.09
16.072869999999966,0.3,-0.2,-0.6,,1.09
16.082689999999957,1.5,0.1,0.0,,0.68
16.092499999999973,1.5,0.1,0.0,,0.68
16.10230999999999,0.3,0.1,0.2,,1.46
16.11212999999998,0.3,0.1,0.2,-15.2,
16.121939999999995,-1.6,-0.3,1.4,,0.41
16.131749999999897,-1.6,-0.3,1.4,,0.41
16.141569999999888,0.3,0.4,-0.3,-13.2,
16.151289999999904,0.3,0.4,-0.3,,0.68
16.161109999999894,0.7,0.2,0.2,,1.0
16.17091999999991,0.7,0.2,0.2,-10.4,
16.180729999999926,-0.4,0.9,0.4,-15.2,
16.190549999999917,-0.4,0.9,0.4,,1.64
16.200359999999932,0.6,0.1,0.3,-14.0,
16.21016999999995,0.6,0.1,0.3,,0.41
16.21998999999994,0.6,0.1,0.3,,1.09
16.229799999999955,-0.4,0.2,-0.4,,1.09
16.23960999999997,-0.4,0.2,-0.4,,1.09
16.24942999999996,-0.2,-0.4,0.4,-11.2,
16.25915999999995,-0.2,-0.4,0.4,,0.41
16.268969999999968,0.3,0.9,0.2,,0.77
16.278779999999983,0.3,0.9,0.2,,0.77
16.288599999999974,0.0,-0.2,-0.6,,1.78
16.29840999999999,0.0,-0.2,-0.6,,1.78
16.308219999999892,0.5,-0.8,0.3,-11.0,
16.318039999999996,0.5,-0.8,0.3,,1.64
16.3278499999999,0.4,0.6,-0.4,,0.63
16.337659999999914,0.4,0.6,-0.4,,0.63
16.347479999999905,0.5,-1.4,-0.2,,1.64
16.35728999999992,0.5,-1.4,-0.2,,1.64
16.367099999999937,-1.0,0.0,0.6,-6.2,
16.376919999999927,-1.0,0.0,0.6,,0.95
16.386639999999943,0.5,0.9,-0.1,,0.86
16.396459999999934,0.5,0.9,-0.1,,0.86
16.40626999999995,0.5,0.9,-0.1,,1.64
16.416079999999965,0.5,0.1,0.7,,1.64
16.425899999999956,0.5,0.1,0.7,,1.64
16.435709999999972,-0.5,-0.6,-0.3,,1.46
16.445519999999988,-0.5,-0.6,-0.3,,1.46
16.45533999999998,0.4,-0.5,0.2,,1.05
16.465149999999994,0.4,-0.5,0.2,-9.6,
16.474959999999896,1.2,-0.3,0.0,,1.64
16.484779999999887,1.2,-0.3,0.0,,1.64
16.494589999999903,-0.4,1.3,-0.3,,1.0
16.504319999999893,-0.4,1.3,-0.3,,1.0
16.51412999999991,-0.4,0.1,-1.6,,0.59
16.523939999999925,-0.4,0.1,-1.6,-7.4,
16.533759999999916,0.7,-0.1,-0.4,-12.4,
16.54356999999993,0.7,-0.1,-0.4,,1.46
16.553379999999947,-0.2,0.1,0.1,,0.68
16.563199999999938,-0.2,0.1,0.1,,0.68
16.573009999999954,0.1,0.2,0.2,,0.54
16.58281999999997,0.1,0.2,0.2,,0.54
16.59263999999996,0.5,1.5,0.4,,0.68
16.602449999999976,0.5,1.5,0.4,,0.68
16.612259999999992,0.5,1.5,0.4,,0.04
16.622079999999983,-0.4,0.1,0.9,,0.04
16.63189,-0.4,0.1,0.9,,0.04
16.64161999999999,-0.5,0.3,0.7,,0.77
16.65142999999989,-0.5,0.3,0.7,,0.77
16.661249999999995,0.0,0.4,-0.2,-4.8,
16.671059999999898,0.0,0.4,-0.2,,0.36
16.680869999999913,-0.5,-0.2,-0.5,,1.64
16.690689999999904,-0.5,-0.2,-0.5,,1.64
16.70049999999992,0.1,1.0,-0.1,,1.64
16.710309999999936,0.1,1.0,-0.1,,1.64
16.720129999999926,0.2,0.2,-0.2,0.8,
16.729939999999942,0.2,0.2,-0.2,,0.36
16.739749999999958,-0.4,0.5,0.1,,0.86
16.74947999999995,-0.4,0.5,0.1,,0.86
16.759289999999964,0.3,0.7,-0.1,,0.36
16.769109999999955,0.3,0.7,-0.1,,0.36
16.77891999999997,-0.4,-0.3,-0.1,,0.73
16.788729999999987,-0.4,-0.3,-0.1,,0.73
16.798549999999977,-0.4,-0.3,-0.1,,1.0
16.808359999999993,-0.2,0.2,0.1,,1.0
16.818169999999895,-0.2,0.2,0.1,-6.6,
16.82799,-0.1,0.4,0.4,,0.36
16.837799999999902,-0.1,0.4,0.4,,0.36
16.847609999999918,-1.1,0.5,0.1,,0.36
16.85742999999991,-1.1,0.5,0.1,,0.36
16.867239999999924,0.1,0.2,0.2,,0.91
16.87704999999994,0.1,0.2,0.2,2.4,
16.88677999999993,0.1,0.1,-0.1,,1.64
16.89659999999992,0.1,0.1,-0.1,,1.64
16.906409999999937,0.1,-0.4,0.3,,0.04
16.916219999999953,0.1,-0.4,0.3,,0.04
16.926039999999944,0.3,0.0,0.4,,1.09
16.93584999999996,0.3,0.0,0.4,-2.0,
16.945659999999975,0.8,0.6,-0.2,,0.86
16.955479999999966,0.8,0.6,-0.2,,0.86
16.96528999999998,-0.4,-1.2,0.3,,0.54
16.975099999999998,-0.4,-1.2,0.3,,0.54
16.98491999999999,-1.5,0.0,-0.3,,0.13
16.99463999999989,-1.5,0.0,-0.3,,0.13
17.004459999999995,-1.5,0.0,-0.3,2.2,
17.014269999999897,-0.4,1.3,-0.6,,1.96
17.024079999999913,-0.4,1.3,-0.6,,1.96
17.033899999999903,0.2,-0.5,0.5,,1.18
17.04370999999992,0.2,-0.5,0.5,,1.18
17.053519999999935,-0.4,-0.6,-0.2,,1.05
17.063339999999926,-0.4,-0.6,-0.2,,1.05
17.07314999999994,-0.1,0.1,-0.2,-2.6,
17.082959999999957,-0.1,0.1,-0.2,,0.68
17.092779999999948,-0.7,0.0,-0.9,,1.0
17.102589999999964,-0.7,0.0,-0.9,,1.0
17.11239999999998,-0.4,-0.1,-0.2,,0.41
17.12221999999997,-0.4,-0.1,-0.2,,0.41
17.131939999999986,0.1,-0.5,0.3,3.6,
17.141759999999977,0.1,-0.5,0.3,,0.54
17.151569999999992,-0.5,-0.7,-0.1,,1.0
17.161379999999895,-0.5,-0.7,-0.1,,1.0
17.1712,-0.5,-0.1,-1.6,,0.68
17.1810099999999,-0.5,-0.1,-1.6,,0.68
17.190819999999917,-0.5,-0.1,-1.6,1.4,
17.200639999999908,0.3,0.3,0.6,,0.36
17.210449999999923,0.3,0.3,0.6,,0.36
17.22025999999994,-0.8,0.4,0.6,,1.14
17.23007999999993,-0.8,0.4,0.6,-3.4,
17.23980999999992,0.3,0.8,-0.2,,1.96
17.249619999999936,0.3,0.8,-0.2,,1.96
17.259429999999952,0.3,-0.3,0.7,,0.68
17.269249999999943,0.3,-0.3,0.7,,0.68
17.27905999999996,1.0,-0.1,0.1,,1.09
17.288869999999974,1.0,-0.1,0.1,0.8,
17.298689999999965,-0.4,0.2,0.4,,0.91
17.30849999999998,-0.4,0.2,0.4,,0.91
17.318309999999997,1.0,-0.1,0.4,-1.0,
17.328129999999987,1.0,-0.1,0.4,,1.59
17.33793999999989,-0.5,-0.3,0.4,,0.68
17.347749999999905,-0.5,-0.3,0.4,3.8,
17.357479999999896,0.3,0.2,0.5,-0.6,
17.36728999999991,0.3,0.2,0.5,,0.36
17.377109999999902,-0.3,-0.2,-0.3,3.6,
17.386919999999918,-0.3,-0.2,-0.3,,0.36
17.396729999999934,-0.3,-0.2,-0.3,,0.82
17.406549999999925,0.5,1.4,0.2,,0.82
17.41635999999994,0.5,1.4,0.2,-2.6,
17.426169999999956,0.2,-0.2,0.1,,0.68
17.435989999999947,0.2,-0.2,0.1,0.8,
17.445799999999963,0.8,-0.8,0.3,,0.68
17.45560999999998,0.8,-0.8,0.3,,0.68
17.46542999999997,0.0,-0.4,0.5,,1.64
17.47515999999996,0.0,-0.4,0.5,0.4,
17.484969999999976,1.0,0.8,-0.2,,0.68
17.49477999999999,1.0,0.8,-0.2,,0.68
17.504599999999982,0.8,-0.2,0.0,,0.63
17.514409999999998,0.8,-0.2,0.0,,0.63
17.5242199999999,-0.7,-0.3,0.5,,0.68
17.53403999999989,-0.7,-0.3,0.5,0.8,
17.543849999999907,-0.4,-0.7,-0.3,0.2,
17.553659999999923,-0.4,-0.7,-0.3,,0.95
17.563479999999913,-0.7,-0.3,-0.3,-2.0,
17.57328999999993,-0.7,-0.3,-0.3,,0.54
17.58301999999992,-0.7,-0.3,-0.3,,0.36
17.592829999999935,-0.8,-0.4,0.0,,0.36
17.60263999999995,-0.8,-0.4,0.0,,0.36
17.612459999999942,-0.4,-0.2,-0.5,-1.2,
17.622269999999958,-0.4,-0.2,-0.5,,0.68
17.632079999999974,-0.1,-0.3,-0.5,,0.68
17.641899999999964,-0.1,-0.3,-0.5,,0.68
17.65170999999998,-0.2,0.8,-0.6,,1.05
17.661519999999996,-0.2,0.8,-0.6,,1.05
17.671339999999987,0.0,-0.1,0.3,-2.4,
17.68114999999989,0.0,-0.1,0.3,,1.46
17.690959999999905,-0.5,-0.7,-0.8,,1.32
17.700689999999895,-0.5,-0.7,-0.8,2.2,
17.71049999999991,-0.6,-0.1,1.3,,0.54
17.7203199999999,-0.6,-0.1,1.3,,0.54
17.730129999999917,0.4,0.5,0.2,,0.77
17.739939999999933,0.4,0.5,0.2,,0.77
17.749759999999924,-0.2,0.2,-0.4,,1.64
17.75956999999994,-0.2,0.2,-0.4,-4.8,
17.769379999999956,-0.2,0.2,-0.4,,0.68
17.779199999999946,-0.6,1.0,-0.1,,0.68
17.789009999999962,-0.6,1.0,-0.1,,0.68
17.798819999999978,0.1,-0.1,0.0,,1.64
17.80863999999997,0.1,-0.1,0.0,,1.64
17.818449999999984,1.2,-0.1,-1.1,,0.41
17.828179999999975,1.2,-0.1,-1.1,-1.4,
17.83798999999999,-0.5,0.1,0.4,,1.64
17.84780999999998,-0.5,0.1,0.4,,1.64
17.857619999999997,0.4,0.6,0.2,,0.36
17.8674299999999,0.4,0.6,0.2,,0.36
17.87724999999989,-0.6,0.2,-0.4,,0.36
17.887059999999906,-0.6,0.2,-0.4,5.0,
17.89686999999992,0.5,0.4,0.0,-1.2,
17.906689999999912,0.5,0.4,0.0,,0.73
17.916499999999928,0.1,-0.4,0.5,,0.36
17.926309999999944,0.1,-0.4,0.5,,0.36
17.936129999999935,-0.1,-0.3,0.0,,1.64
17.94593999999995,-0.1,-0.3,0.0,,1.64
17.95566999999994,1.5,0.4,-1.4,,1.46
17.965479999999957,1.5,0.4,-1.4,0.4,
17.975289999999973,1.5,0.4,-1.4,,0.36
17.985109999999963,0.3,-0.2,0.2,,0.36
17.99491999999998,0.3,-0.2,0.2,,0.36
18.004729999999995,-0.2,-0.6,0.1,,1.64
18.014549999999986,-0.2,-0.6,0.1,,1.64
18.024359999999888,0.4,0.1,-0.1,-3.8,
18.034169999999904,0.4,0.1,-0.1,,1.46
18.043989999999894,-0.1,-1.5,0.3,,1.14
18.05379999999991,-0.1,-1.5,0.3,-3.4,
18.063609999999926,0.0,-0.2,-0.1,,0.54
18.073429999999917,0.0,-0.2,-0.1,,0.54
18.083159999999907,-0.3,0.4,-0.7,-2.0,
18.092969999999923,-0.3,0.4,-0.7,,1.0
18.10277999999994,1.0,-0.7,1.0,,1.0
18.11259999999993,1.0,-0.7,1.0,4.8,
18.122409999999945,-1.6,-1.0,0.0,,1.91
18.13221999999996,-1.6,-1.0,0.0,,1.91
18.14203999999995,0.0,-0.4,-0.1,,0.09
18.151849999999968,0.0,-0.4,-0.1,,0.09
18.161659999999983,0.9,-0.5,0.5,,0.77
18.171479999999974,0.9,-0.5,0.5,2.6,
18.18128999999999,0.9,-0.5,0.5,2.6,
18.191099999999892,-0.6,-0.6,0.1,,0.82
18.200829999999996,-0.6,-0.6,0.1,,0.82
18.2106399999999,0.1,0.2,0.1,,0.63
18.22045999999989,0.1,0.2,0.1,,0.63
18.230269999999905,0.0,-0.9,-0.1,,0.77
18.24007999999992,0.0,-0.9,-0.1,0.8,
18.24989999999991,0.2,1.1,-0.3,0.4,
18.259709999999927,0.2,1.1,-0.3,,1.64
18.269519999999943,-0.1,0.1,1.5,,1.46
18.279339999999934,-0.1,0.1,1.5,,1.46
18.28914999999995,0.4,-0.6,0.4,,1.64
18.298959999999965,0.4,-0.6,0.4,,1.64
18.308779999999956,-0.7,-0.2,-0.7,3.6,
18.318499999999972,-0.7,-0.2,-0.7,3.6,
18.328399999999988,0.0,0.3,-0.1,,0.73
18.33812999999998,0.0,0.3,-0.1,,0.73
18.347939999999994,0.4,1.3,-0.3,,1.27
18.357759999999985,0.4,1.3,-0.3,,1.27
18.367569999999887,0.4,1.3,-0.3,-2.4,
18.377379999999903,0.0,-0.1,-0.1,-2.4,
18.387199999999893,0.0,-0.1,-0.1,,1.96
18.39700999999991,0.0,0.5,-0.1,,0.36
18.406819999999925,0.0,0.5,-0.1,-4.0,
18.416639999999916,0.2,-0.1,-0.8,,0.77
18.42644999999993,0.2,-0.1,-0.8,,0.77
18.436259999999947,0.3,0.2,0.1,-3.8,
18.446079999999938,0.3,0.2,0.1,,1.64
18.45580999999993,0.6,-1.6,0.1,,1.14
18.465619999999944,0.6,-1.6,0.1,-3.4,
18.47542999999996,0.3,0.3,-1.5,,1.96
18.48524999999995,0.3,0.3,-1.5,,1.96
18.495059999999967,0.0,0.3,0.4,,0.22
18.504869999999983,0.0,0.3,0.4,,0.22
18.514689999999973,-0.1,0.3,-0.4,-3.4,
18.52449999999999,-0.1,0.3,-0.4,,1.32
18.53430999999989,0.3,0.0,0.3,0.0,
18.544129999999996,0.3,0.0,0.3,,1.64
18.553939999999898,0.3,0.0,0.3,,0.54
18.563749999999914,0.4,0.2,-0.1,,0.54
18.573569999999904,0.4,0.2,-0.1,,0.54
18.58328999999992,0.4,-0.3,0.3,,1.64
18.59310999999991,0.4,-0.3,0.3,,1.64
18.602919999999926,0.2,-1.5,0.5,-2.0,
18.612729999999942,0.2,-1.5,0.5,,0.36
18.622549999999933,0.3,0.3,0.7,,1.78
18.63235999999995,0.3,0.3,0.7,,1.78
18.642169999999965,-0.1,0.4,-0.4,,1.46
18.651989999999955,-0.1,0.4,-0.4,,1.46
18.66179999999997,-0.8,0.1,0.6,,0.59
18.671609999999987,-0.8,0.1,0.6,0.2,
18.681429999999978,1.4,0.4,-0.2,,0.77
18.691159999999968,1.4,0.4,-0.2,,0.77
18.700969999999984,0.0,-1.5,-0.4,,0.54
18.71078,0.0,-1.5,-0.4,,0.54
18.72059999999999,0.3,-0.5,-1.0,,1.0
18.730409999999893,0.3,-0.5,-1.0,-2.0,
18.74021999999991,0.0,0.5,0.3,,0.68
18.7500399999999,0.0,0.5,0.3,,0.68
18.759849999999915,0.0,0.5,0.3,,1.0
18.76965999999993,-0.2,-0.1,0.0,,1.0
18.77947999999992,-0.2,-0.1,0.0,,1.0
18.789289999999937,-1.4,-0.5,0.0,,0.68
18.799099999999953,-1.4,-0.5,0.0,,0.68
18.808919999999944,-0.2,0.6,-0.2,,0.36
18.81872999999996,-0.2,0.6,-0.2,,0.36
18.82845999999995,0.2,0.0,-1.5,,1.46
18.838269999999966,0.2,0.0,-1.5,,1.46
18.84807999999998,0.2,-0.9,-0.2,,0.68
18.857899999999972,0.2,-0.9,-0.2,,0.68
18.867709999999988,-0.4,-0.2,-0.2,-4.8,
18.87751999999989,-0.4,-0.2,-0.2,,0.5
18.887339999999995,0.0,0.2,0.0,,0.54
18.897149999999897,0.0,0.2,0.0,5.0,
18.906959999999913,-0.8,1.2,-0.2,,0.77
18.916779999999903,-0.8,1.2,-0.2,,0.77
18.92658999999992,1.5,0.1,-0.2,,1.96
18.936399999999935,1.5,0.1,-0.2,,1.96
18.946129999999926,1.5,0.1,-0.2,,1.96
18.95593999999994,-0.3,-0.1,0.1,0.4,
18.965759999999932,-0.3,-0.1,0.1,,1.96
18.975569999999948,-0.7,0.8,-0.2,,1.0
18.985379999999964,-0.7,0.8,-0.2,,1.0
18.995199999999954,0.2,0.4,0.6,,0.95
19.00500999999997,0.2,0.4,0.6,,0.95
19.014819999999986,0.9,-0.4,-0.5,,0.68
19.024639999999977,0.9,-0.4,-0.5,1.2,
19.034449999999993,0.1,0.1,0.0,,0.36
19.044259999999895,0.1,0.1,0.0,,0.36
19.05408,-0.5,0.5,-0.2,,1.64
19.0638899999999,-0.5,0.5,-0.2,,1.64
19.073699999999917,0.6,-0.1,1.2,,0.68
19.083519999999908,0.6,-0.1,1.2,,0.68
19.093249999999898,0.0,0.2,-0.5,-2.4,
19.103059999999914,0.0,0.2,-0.5,,1.46
19.11286999999993,-0.1,0.8,-0.3,,1.64
19.12268999999992,-0.1,0.8,-0.3,,1.64
19.132499999999936,0.3,0.2,0.4,,1.0
19.142309999999952,0.3,0.2,0.4,,1.0
19.152129999999943,0.3,0.2,0.4,3.4,
19.16193999999996,-0.3,0.3,-0.4,,0.91
19.171749999999975,-0.3,0.3,-0.4,,0.91
19.181569999999965,0.4,0.4,-0.4,,0.54
19.19137999999998,0.4,0.4,-0.4,,0.54
19.201189999999997,-0.8,-1.4,0.3,,1.0
19.210919999999987,-0.8,-1.4,0.3,,1.0
19.22072999999989,-0.1,0.5,-1.3,-2.2,
19.230549999999994,-0.1,0.5,-1.3,,1.14
19.240359999999896,-0.1,0.9,0.0,,0.36
19.250169999999912,-0.1,0.9,0.0,0.8,
19.259989999999902,0.3,-0.6,0.4,,0.54
19.26979999999992,0.3,-0.6,0.4,,0.54
19.279609999999934,-0.5,0.5,0.1,-3.2,
19.289429999999925,-0.5,0.5,0.1,,0.68
19.29923999999994,0.6,-0.1,-0.1,,0.54
19.309049999999957,0.6,-0.1,-0.1,-2.0,
19.318869999999947,-1.0,-0.3,-0.4,,0.04
19.328679999999963,-1.0,-0.3,-0.4,,0.04
19.338409999999953,-1.0,-0.3,-0.4,3.6,
19.34821999999997,0.1,1.5,-0.2,,0.36
19.35803999999996,0.1,1.5,-0.2,,0.36
19.367849999999976,-0.2,0.3,-0.3,-3.8,
19.37765999999999,-0.2,0.3,-0.3,-3.8,
19.387479999999982,-0.5,-0.6,0.0,,0.68
19.397289999999998,-0.5,-0.6,0.0,,0.68
19.4070999999999,-0.9,-0.2,0.3,,1.0
19.41691999999989,-0.9,-0.2,0.3,,1.0
19.426729999999907,1.3,0.5,0.1,,0.68
19.436539999999923,1.3,0.5,0.1,0.2,
19.446359999999913,-0.8,0.9,-0.6,,0.73
19.45607999999993,-0.8,0.9,-0.6,,0.73
19.46589999999992,-0.3,-0.1,1.4,,0.54
19.475709999999935,-0.3,-0.1,1.4,,0.54
19.48551999999995,17.9,20.0,-16.2,,1.46
19.495339999999942,17.9,20.0,-16.2,-18.0,
19.505149999999958,19.1,14.1,17.6,7.4,
19.514959999999974,19.1,14.1,17.6,,1.64
19.524779999999964,-5.3,15.0,8.2,-24.6,
19.53458999999998,-5.3,15.0,8.2,,0.54
19.544399999999996,-5.3,15.0,8.2,,0.36
19.554219999999987,0.1,-0.5,5.9,,0.36
19.56393999999989,0.1,-0.5,5.9,,0.36
19.573759999999993,-0.2,0.6,-1.1,-8.0,
19.583569999999895,-0.2,0.6,-1.1,,1.64
19.59337999999991,-0.3,0.2,0.6,,1.46
19.6031999999999,-0.3,0.2,0.6,,1.46
19.613009999999917,-1.1,0.5,-0.3,,0.36
19.622819999999933,-1.1,0.5,-0.3,,0.36
19.632639999999924,0.2,-1.6,-0.2,3.2,
19.64244999999994,0.2,-1.6,-0.2,,1.18
19.652259999999956,-0.3,0.6,-1.4,,0.95
19.662079999999946,-0.3,0.6,-1.4,-4.8,
19.671889999999962,0.1,0.8,0.1,,1.64
19.681699999999978,0.1,0.8,0.1,,1.64
19.69142999999997,-0.9,0.6,-0.2,-4.8,
19.70124999999996,-0.9,0.6,-0.2,,1.32
19.711059999999975,0.4,-0.4,0.5,,0.68
19.72086999999999,0.4,-0.4,0.5,3.6,
19.73068999999998,0.4,-0.4,0.5,,1.64
19.740499999999997,-0.3,-0.1,0.1,,1.64
19.7503099999999,-0.3,-0.1,0.1,,1.64
19.76012999999989,-0.3,0.6,-1.6,,0.45
19.769939999999906,-0.3,0.6,-1.6,,0.45
19.779749999999922,0.3,-0.3,-0.4,,0.68
19.789569999999912,0.3,-0.3,-0.4,-2.0,
19.79937999999993,0.0,-0.5,0.5,,1.46
19.809189999999944,0.0,-0.5,0.5,,1.46
19.818919999999935,0.3,0.4,-0.4,,0.68
19.82872999999995,0.3,0.4,-0.4,,0.68
19.83854999999994,-0.4,0.3,0.3,,0.68
19.848359999999957,-0.4,0.3,0.3,-2.0,
19.858169999999973,-0.7,-0.6,-0.3,,0.54
19.867989999999963,-0.7,-0.6,-0.3,,0.54
19.87779999999998,0.0,-0.4,-0.3,,1.0
19.887609999999995,0.0,-0.4,-0.3,,1.0
19.897429999999986,-0.5,0.3,0.2,,0.36
19.907239999999888,-0.5,0.3,0.2,,0.36
19.917049999999904,-0.7,-0.4,0.0,,0.36
19.926869999999894,-0.7,-0.4,0.0,,0.36
19.9366,-0.7,-0.4,0.0,,1.64
19.9464099999999,0.3,0.0,0.3,,1.64
19.956219999999917,0.3,0.0,0.3,,1.64
19.966039999999907,0.5,-0.1,0.4,,0.36
19.975849999999923,0.5,-0.1,0.4,,0.36
19.98565999999994,0.2,0.1,-0.7,-6.6,
19.99547999999993,0.2,0.1,-0.7,,1.64
20.005289999999945,1.4,0.3,0.0,,1.64
20.01509999999996,1.4,0.3,0.0,-6.6,
20.024919999999952,0.6,1.1,-0.7,,0.68
20.034729999999968,0.6,1.1,-0.7,,0.68
20.044539999999984,1.4,0.4,0.1,-6.0,
20.054359999999974,1.4,0.4,0.1,,0.36
20.06407999999999,0.5,-0.2,0.2,,2.1
20.07389999999998,0.5,-0.2,0.2,0.4,
20.083709999999996,-0.4,0.1,0.4,,0.36
20.0935199999999,-0.4,0.1,0.4,,0.36
20.10333999999989,0.9,0.0,0.3,,1.0
20.113149999999905,0.9,0.0,0.3,4.6,
20.12295999999992,0.9,0.0,0.3,,1.64
20.13277999999991,0.1,0.4,-1.2,-3.8,
20.142589999999927,0.1,0.4,-1.2,-3.8,
20.152399999999943,0.6,-0.1,-0.1,,0.36
20.162219999999934,0.6,-0.1,-0.1,,0.36
20.17193999999995,-0.6,0.6,-0.2,2.2,
20.18175999999994,-0.6,0.6,-0.2,,0.36
20.191569999999956,1.2,1.2,0.1,,1.96
20.201379999999972,1.2,1.2,0.1,-2.4,
20.211199999999963,0.1,-0.6,0.2,,0.18
20.22100999999998,0.1,-0.6,0.2,,0.18
20.230819999999994,1.4,0.7,0.1,3.0,
20.240639999999985,1.4,0.7,0.1,,0.36
20.250449999999887,-0.2,-1.4,-0.4,,0.68
20.260259999999903,-0.2,-1.4,-0.4,-2.0,
20.270079999999894,0.4,-0.6,0.7,,0.91
20.27988999999991,0.4,-0.6,0.7,,0.91
20.2896199999999,-0.7,-1.2,0.2,,0.73
20.299429999999916,-0.7,-1.2,0.2,,0.73
20.309249999999906,0.2,0.0,-0.5,,1.46
20.319059999999922,0.2,0.0,-0.5,,1.46
20.328869999999938,0.2,0.0,-0.5,,0.41
20.33868999999993,-0.7,-0.5,-0.1,,0.41
20.348499999999945,-0.7,-0.5,-0.1,,0.41
20.35830999999996,-0.7,0.2,-0.7,,1.64
20.36812999999995,-0.7,0.2,-0.7,,1.64
20.377939999999967,0.3,-0.4,0.1,,0.68
20.387749999999983,0.3,-0.4,0.1,,0.68
20.397569999999973,-0.4,0.8,-0.3,-1.2,
20.40728999999999,-0.4,0.8,-0.3,,0.41
20.41710999999998,0.2,0.6,-1.5,,0.36
20.426919999999996,0.2,0.6,-1.5,,0.36
20.436729999999898,0.6,0.2,-0.4,,1.32
20.44654999999989,0.6,0.2,-0.4,,1.32
20.456359999999904,-0.9,1.1,-0.7,1.0,
20.46616999999992,-0.9,1.1,-0.7,,0.68
20.47598999999991,1.1,-0.2,-0.4,,0.36
20.485799999999927,1.1,-0.2,-0.4,-2.0,
20.495609999999942,0.7,1.1,-0.1,,0.73
20.505429999999933,0.7,1.1,-0.1,,0.73
20.515159999999923,0.7,1.1,-0.1,-2.4,
20.52496999999994,-0.3,0.0,1.1,-2.4,
20.534779999999955,-0.3,0.0,1.1,,0.91
20.544599999999946,-0.5,0.5,0.3,3.6,
20.55440999999996,-0.5,0.5,0.3,,0.36
20.564219999999978,0.8,-0.3,0.1,,0.36
20.574039999999968,0.8,-0.3,0.1,,0.36
20.583849999999984,0.1,0.0,0.2,-4.8,
20.59366,0.1,0.0,0.2,,1.09
20.60347999999999,0.1,0.6,-0.3,0.0,
20.613289999999893,0.1,0.6,-0.3,0.0,
20.62309999999991,0.0,0.0,-0.2,,0.68
20.6329199999999,0.0,0.0,-0.2,,0.68
20.642639999999915,0.1,-0.4,0.5,0.4,
20.652459999999905,0.1,-0.4,0.5,,1.64
20.66226999999992,-1.3,0.6,-0.3,,1.64
20.672079999999937,-1.3,0.6,-0.3,-3.8,
20.681899999999928,0.2,-0.4,0.5,3.6,
20.691709999999944,0.2,-0.4,0.5,,0.36
20.70151999999996,0.2,-0.4,0.5,3.6,
20.71133999999995,-0.6,-0.3,0.5,,0.54
20.721149999999966,-0.6,-0.3,0.5,,1.91
20.730959999999982,0.3,-1.4,-0.1,,1.91
20.740779999999972,0.3,-1.4,-0.1,,1.91
20.75058999999999,0.1,-0.4,0.4,-5.2,
20.76031999999998,0.1,-0.4,0.4,,1.78
20.770129999999995,-0.7,-1.1,-0.5,,0.68
20.779939999999897,-0.7,-1.1,-0.5,,0.68
20.789759999999887,0.4,0.1,0.1,,1.64
20.799569999999903,0.4,0.1,0.1,,1.64
20.80937999999992,-0.7,-0.4,0.0,0.0,
20.81919999999991,-0.7,-0.4,0.0,,0.31
20.829009999999926,-0.4,-0.1,-0.3,,1.64
20.83881999999994,-0.4,-0.1,-0.3,,1.64
20.848639999999932,0.5,0.1,0.0,,1.64
20.858449999999948,0.5,0.1,0.0,,1.64
20.86817999999994,-0.1,-0.1,0.0,,1.0
20.877989999999954,-0.1,-0.1,0.0,3.4,
20.887809999999945,0.9,0.0,0.2,,0.91
20.89761999999996,0.9,0.0,0.2,,0.91
20.907429999999977,0.9,0.0,0.2,,0.77
20.917249999999967,0.3,0.1,0.1,,0.77
20.927059999999983,0.3,0.1,0.1,,0.77
20.93687,-0.5,0.3,1.4,-2.6,
20.94668999999999,-0.5,0.3,1.4,,0.63
20.95649999999989,0.3,0.3,0.3,,1.32
20.966309999999908,0.3,0.3,0.3,3.6,
20.9761299999999,-0.3,0.3,-0.1,,0.68
20.985849999999914,-0.3,0.3,-0.1,,0.68
20.995669999999905,0.3,0.3,0.5,3.6,
21.00547999999992,0.3,0.3,0.5,,1.32
21.015289999999936,0.2,0.4,0.0,,0.82
21.025109999999927,0.2,0.4,0.0,2.2,
21.034919999999943,0.4,0.2,0.3,,0.54
21.04472999999996,0.4,0.2,0.3,,0.54
21.05454999999995,0.8,-1.4,-0.2,,0.73
21.064359999999965,0.8,-1.4,-0.2,,0.73
21.07416999999998,-0.4,-0.5,-0.1,,0.77
21.08398999999997,-0.4,-0.5,-0.1,,0.77
21.093799999999987,0.4,-1.0,0.7,,0.36
21.10360999999989,0.4,-1.0,0.7,,0.36
21.113339999999994,0.4,-1.0,0.7,,0.36
21.123159999999984,0.1,0.3,-0.1,,0.04
21.13297,0.1,0.3,-0.1,,0.04
21.142779999999902,-0.3,1.1,-0.8,,0.68
21.152599999999893,-0.3,1.1,-0.8,,0.68
21.16240999999991,0.8,-0.3,0.1,-2.4,
21.172219999999925,0.8,-0.3,0.1,,1.0
21.182039999999915,-1.3,0.1,-1.0,,0.36
21.19184999999993,-1.3,0.1,-1.0,,0.36
21.201659999999947,0.2,0.1,-0.2,,1.78
21.211479999999938,0.2,0.1,-0.2,,1.78
21.221289999999954,-1.5,-1.3,0.5,-6.0,
21.231019999999944,-1.5,-1.3,0.5,,0.54
21.24082999999996,-0.5,1.2,0.0,,0.77
21.250639999999976,-0.5,1.2,0.0,,0.77
21.260459999999966,1.0,0.9,-0.1,,0.54
21.270269999999982,1.0,0.9,-0.1,,0.54
21.280079999999998,-0.1,0.8,-0.5,,1.09
21.28989999999999,-0.1,0.8,-0.5,-3.2,
21.29970999999989,-0.1,0.8,-0.5,,1.32
21.309519999999907,0.1,-0.3,-0.4,,1.32
21.319339999999897,0.1,-0.3,-0.4,-3.4,
21.329149999999913,0.8,0.3,-0.3,,0.77
21.33895999999993,0.8,0.3,-0.3,,0.77
21.34877999999992,-0.5,-0.1,-0.5,1.6,
21.358499999999935,-0.5,-0.1,-0.5,,0.68
21.368319999999926,0.7,0.5,-0.1,,0.73
21.378129999999942,0.7,0.5,-0.1,3.0,
21.387939999999958,0.2,-0.1,0.1,,0.95
21.39775999999995,0.2,-0.1,0.1,,0.95
21.407569999999964,-1.4,0.3,0.4,,0.41
21.41737999999998,-1.4,0.3,0.4,,0.41
21.42719999999997,-0.2,0.5,0.0,,0.36
21.437009999999987,-0.2,0.5,0.0,,0.36
21.44681999999989,-0.8,-0.1,1.5,,1.64
21.456639999999993,-0.8,-0.1,1.5,,1.64
21.466449999999895,0.5,-1.3,0.0,,1.46
21.47618,0.5,-1.3,0.0,,1.46
21.4859899999999,0.5,-1.3,0.0,,1.0
21.495809999999892,0.3,0.6,-1.6,,1.0
21.505619999999908,0.3,0.6,-1.6,,1.96
21.515429999999924,-0.1,0.0,0.4,0.4,
21.525249999999915,-0.1,0.0,0.4,,1.96
21.53505999999993,-0.6,-0.8,0.4,,1.78
21.544869999999946,-0.6,-0.8,0.4,,1.78
21.554689999999937,0.1,0.1,-0.4,,0.59
21.564499999999953,0.1,0.1,-0.4,,0.59
21.57430999999997,0.0,-0.7,0.6,2.0,
21.58403999999996,0.0,-0.7,0.6,,0.68
21.593849999999975,-1.5,-0.9,-0.2,,0.73
21.603669999999966,-1.5,-0.9,-0.2,,0.73
21.61347999999998,0.1,0.6,-0.3,,0.41
21.623289999999997,0.1,0.6,-0.3,,0.41
21.633109999999988,0.4,-0.7,-1.1,-3.4,
21.64291999999989,0.4,-0.7,-1.1,-3.4,
21.652729999999906,-0.6,-1.1,0.0,,0.36
21.662549999999896,-0.6,-1.1,0.0,,0.36
21.672359999999912,0.7,0.0,-0.1,0.4,
21.682169999999928,0.7,0.0,-0.1,,1.91
21.69198999999992,0.7,0.0,-0.1,3.8,
21.701799999999935,-0.2,-0.7,-0.4,3.8,
21.711529999999925,-0.2,-0.7,-0.4,,0.41
21.72133999999994,-0.5,0.0,0.1,,0.68
21.73115999999993,-0.5,0.0,0.1,-1.2,
21.740969999999948,0.3,-0.8,1.5,,1.64
21.750779999999963,0.3,-0.8,1.5,,1.64
21.760599999999954,-0.1,-1.0,-0.2,-5.2,
21.77040999999997,-0.1,-1.0,-0.2,,1.64
21.780219999999986,-0.1,0.8,-0.5,,0.36
21.790039999999976,-0.1,0.8,-0.5,1.4,
21.799849999999992,0.0,0.5,1.2,,1.46
21.809659999999894,0.0,0.5,1.2,,1.46
21.81948,-0.1,0.1,0.8,,1.0
21.8291999999999,-0.1,0.1,0.8,,1.0
21.839099999999917,-0.9,0.4,0.2,-0.6,
21.848829999999907,-0.9,0.4,0.2,,0.68
21.858639999999923,0.5,0.2,-0.1,3.6,
21.868459999999914,0.5,0.2,-0.1,,0.68
21.87826999999993,0.5,0.2,-0.1,,0.68
21.888079999999945,0.3,-0.3,-0.1,,0.68
21.897899999999936,0.3,-0.3,-0.1,,0.68
21.907709999999952,1.0,-0.7,0.8,,1.14
21.917519999999968,1.0,-0.7,0.8,0.2,
21.92733999999996,0.3,-1.5,-0.3,0.4,
21.937149999999974,0.3,-1.5,-0.3,,1.78
21.946879999999965,0.7,0.1,-0.4,,1.32
21.95668999999998,0.7,0.1,-0.4,,1.32
21.966499999999996,0.8,0.5,0.0,,0.41
21.976319999999987,0.8,0.5,0.0,,0.41
21.98612999999989,0.0,-0.4,-0.1,-1.4,
21.995939999999905,0.0,-0.4,-0.1,-1.4,
22.005759999999896,1.3,0.5,0.4,,1.64
22.01556999999991,1.3,0.5,0.4,,1.64
22.025379999999927,0.1,0.2,-0.6,,0.36
22.035199999999918,0.1,0.2,-0.6,,0.36
22.045009999999934,0.3,0.1,1.4,,1.14
22.05481999999995,0.3,0.1,1.4,-4.0,
22.06463999999994,0.2,1.0,0.6,,1.64
22.07436999999993,0.2,1.0,0.6,,1.64
22.084179999999947,0.2,1.0,0.6,,0.68
22.093989999999962,-0.5,0.0,0.5,,0.68
22.103809999999953,-0.5,0.0,0.5,,0.68
22.11361999999997,1.0,0.0,0.6,,0.36
22.123429999999985,1.0,0.0,0.6,,0.36
22.133249999999975,0.3,-0.5,0.5,,1.09
22.14305999999999,0.3,-0.5,0.5,,1.09
22.152869999999893,-0.7,0.3,-1.5,,0.54
22.162689999999998,-0.7,0.3,-1.5,,0.54
22.1724999999999,-0.6,0.3,0.1,,1.0
22.182309999999916,-0.6,0.3,0.1,,1.0
22.192039999999906,-0.2,-0.8,0.3,,1.64
22.201849999999922,-0.2,-0.8,0.3,,1.64
22.211669999999913,1.1,0.2,-0.1,,0.36
22.22147999999993,1.1,0.2,-0.1,,0.36
22.231289999999944,-0.2,0.0,0.2,,1.64
22.241109999999935,-0.2,0.0,0.2,,1.64
22.25091999999995,-0.1,-1.1,0.3,,0.68
22.260729999999967,-0.1,-1.1,0.3,,0.68
22.270549999999957,-0.1,-1.1,0.3,,0.68
22.280359999999973,0.1,0.4,0.0,-4.4,
22.29016999999999,0.1,0.4,0.0,,0.68
22.29998999999998,0.3,-0.3,-0.2,,1.46
22.30971999999997,0.3,-0.3,-0.2,,1.46
22.319529999999986,-0.5,-0.8,0.0,,0.68
22.32933999999989,-0.5,-0.8,0.0,,0.68
22.339159999999993,0.2,-0.3,0.0,1.6,
22.348969999999895,0.2,-0.3,0.0,,0.41
22.35877999999991,-0.1,-0.2,0.1,,0.36
22.3685999999999,-0.1,-0.2,0.1,,0.36
22.378409999999917,-0.9,0.3,-0.1,,0.36
22.388219999999933,-0.9,0.3,-0.1,,0.36
22.398039999999924,1.4,0.1,-0.7,-2.0,
22.40784999999994,1.4,0.1,-0.7,-2.0,
22.417659999999955,0.4,0.3,-0.6,,0.54
22.427389999999946,0.4,0.3,-0.6,,0.54
22.43719999999996,0.2,0.0,0.2,,1.18
22.447019999999952,0.2,0.0,0.2,,1.18
22.456829999999968,-0.1,0.0,-0.3,,0.63
22.466639999999984,-0.1,0.0,-0.3,-2.8,
22.476459999999975,-0.1,0.0,-0.3,,1.64
22.48626999999999,0.2,0.2,-0.9,,1.64
22.496079999999893,0.2,0.2,-0.9,-1.0,
22.505899999999997,-0.6,0.1,0.4,,0.59
22.5157099999999,-0.6,0.1,0.4,,0.59
22.525519999999915,0.9,-0.5,0.2,,1.64
22.535339999999906,0.9,-0.5,0.2,,1.64
22.54514999999992,0.6,-0.2,1.3,,0.68
22.554879999999912,0.6,-0.2,1.3,0.8,
22.564689999999928,1.0,0.5,0.0,,0.59
22.574499999999944,1.0,0.5,0.0,,0.59
22.584319999999934,-0.3,0.5,0.2,,1.64
22.59412999999995,-0.3,0.5,0.2,,1.64
22.603939999999966,0.1,0.2,-0.2,,0.36
22.613759999999957,0.1,0.2,-0.2,,0.36
22.623569999999972,-0.5,0.3,0.2,,0.82
22.63337999999999,-0.5,0.3,0.2,,0.82
22.64319999999998,0.1,-0.2,0.2,,0.54
22.653009999999995,0.1,-0.2,0.2,,0.54
22.662819999999897,0.1,-0.2,0.2,,0.77
22.672549999999887,0.2,-0.3,0.9,,0.77
22.68236999999999,0.2,-0.3,0.9,-2.0,
22.692179999999894,-0.2,0.2,1.5,3.6,
22.70198999999991,-0.2,0.2,1.5,,0.36
22.7118099999999,0.3,0.2,-0.1,,0.36
22.721619999999916,0.3,0.2,-0.1,,0.36
22.731429999999932,-0.1,-0.6,0.7,,1.0
22.741249999999923,-0.1,-0.6,0.7,,1.0
22.75105999999994,0.1,0.4,0.0,-3.4,
22.760869999999954,0.1,0.4,0.0,,1.09
22.770689999999945,0.0,-1.0,-0.3,,1.96
22.78049999999996,0.0,-1.0,-0.3,,1.96
22.790309999999977,0.2,-0.4,-0.9,,0.77
22.800039999999967,0.2,-0.4,-0.9,,0.77
22.809849999999983,0.3,0.2,-0.4,3.2,
22.819669999999974,0.3,0.2,-0.4,3.2,
22.82947999999999,0.2,-0.4,-0.2,,1.0
22.83928999999989,0.2,-0.4,-0.2,,1.0
22.849109999999996,-1.5,-0.7,-0.1,0.4,
22.858919999999898,-1.5,-0.7,-0.1,,1.32
22.868729999999914,-1.5,-0.7,-0.1,1.4,
22.878549999999905,-0.5,-0.1,-0.5,1.4,
22.88835999999992,-0.5,-0.1,-0.5,,0.31
22.898169999999936,0.3,0.2,0.1,,0.95
22.907899999999927,0.3,0.2,0.1,0.8,
22.917719999999917,-0.8,-0.7,-0.1,,0.41
22.927529999999933,-0.8,-0.7,-0.1,,0.41
22.93733999999995,0.0,0.1,0.0,-3.4,
22.94715999999994,0.0,0.1,0.0,,0.36
22.956969999999956,0.3,0.0,-0.4,,0.68
22.96677999999997,0.3,0.0,-0.4,6.4,
22.976599999999962,-0.8,0.9,-0.2,,0.36
22.986409999999978,-0.8,0.9,-0.2,,0.36
22.996219999999994,0.0,0.1,-1.2,,0.36
23.006039999999985,0.0,0.1,-1.2,,0.36
23.015849999999887,0.8,0.4,-0.1,-6.6,
23.025659999999903,0.8,0.4,-0.1,,1.64
23.035389999999893,-0.3,0.0,0.0,0.2,
23.04519999999991,-0.3,0.0,0.0,0.2,
23.0550199999999,-0.3,0.0,0.0,,1.96
23.064829999999915,1.4,0.0,0.6,,1.96
23.07463999999993,1.4,0.0,0.6,,1.96
23.084459999999922,0.0,0.1,-0.4,,1.64
23.094269999999938,0.0,0.1,-0.4,,1.64
23.104079999999954,-0.9,0.5,-0.3,,0.36
23.113899999999944,-0.9,0.5,-0.3,3.6,
23.12370999999996,-0.3,-0.2,-0.1,,0.59
23.133519999999976,-0.3,-0.2,-0.1,,0.59
23.143249999999966,-0.2,0.3,-0.2,,1.0
23.153059999999982,-0.2,0.3,-0.2,,1.0
23.162879999999973,-0.6,0.2,-0.4,,0.68
23.17268999999999,-0.6,0.2,-0.4,-2.4,
23.18249999999989,0.0,1.4,0.1,,0.68
23.192319999999995,0.0,1.4,0.1,,0.68
23.202129999999897,0.2,0.3,-1.2,,1.0
23.211939999999913,0.2,0.3,-1.2,,1.0
23.221759999999904,-0.3,0.4,-0.2,,1.5
23.23156999999992,-0.3,0.4,-0.2,-1.0,
23.241379999999936,0.0,0.0,-0.7,,1.09
23.251199999999926,0.0,0.0,-0.7,,1.09
23.261009999999942,0.0,0.0,-0.7,,0.68
23.270819999999958,0.3,0.5,0.4,,0.68
23.28054999999995,0.3,0.5,0.4,,0.68
23.29036999999994,-0.2,0.2,-0.9,,1.46
23.300179999999955,-0.2,0.2,-0.9,,1.46
23.30998999999997,-0.4,0.5,-1.5,,1.96
23.31980999999996,-0.4,0.5,-1.5,,1.96
23.329619999999977,-0.7,-0.3,0.8,,0.68
23.339429999999993,-0.7,-0.3,0.8,,0.68
23.349249999999984,-0.2,1.2,0.7,,0.68
23.35906,-0.2,1.2,0.7,,0.68
23.3688699999999,0.2,0.5,-0.3,-2.0,
23.378689999999892,0.2,0.5,-0.3,,1.0
23.388499999999908,0.1,0.4,-0.1,,0.41
23.3982299999999,0.1,0.4,-0.1,,0.41
23.408039999999914,0.2,-1.4,0.1,,0.68
23.41784999999993,0.2,-1.4,0.1,,0.68
23.42766999999992,0.3,-0.1,0.1,,0.41
23.437479999999937,0.3,-0.1,0.1,,0.41
23.447289999999953,0.3,-0.1,0.1,,0.68
23.457109999999943,-0.9,-0.8,-0.2,,0.68
23.46691999999996,-0.9,-0.8,-0.2,,0.68
23.476729999999975,-1.5,-0.5,-0.1,,1.96
23.486549999999966,-1.5,-0.5,-0.1,,1.96
23.49635999999998,-0.5,0.7,0.0,,0.68
23.506169999999997,-0.5,0.7,0.0,,0.68
23.515899999999988,-0.1,-0.5,-0.9,,0.54
23.52571999999998,-0.1,-0.5,-0.9,5.0,
23.535529999999994,0.2,-1.1,-0.1,,1.64
23.545339999999896,0.2,-1.1,-0.1,,1.64
23.555159999999887,-0.2,-0.1,0.0,,1.64
23.564969999999903,-0.2,-0.1,0.0,,1.64
23.57477999999992,-0.1,-0.4,-0.2,,0.22
23.58459999999991,-0.1,-0.4,-0.2,-4.6,
23.594409999999925,0.0,0.0,-1.0,2.2,
23.60421999999994,0.0,0.0,-1.0,,0.68
23.61403999999993,5.4,13.2,7.2,,0.95
23.623759999999947,5.4,13.2,7.2,,0.95
23.633579999999938,1.4,-15.7,-24.9,,0.45
23.643389999999954,1.4,-15.7,-24.9,,0.45
23.65319999999997,1.4,-15.7,-24.9,-124.2,
23.66301999999996,-3.0,18.1,7.4,,1.64
23.672829999999976,-3.0,18.1,7.4,,1.64
23.682639999999992,0.8,1.0,5.4,,0.36
23.692459999999983,0.8,1.0,5.4,,0.36
23.70227,-3.1,1.9,-0.4,,0.95
23.7120799999999,-3.1,1.9,-0.4,,0.95
23.72189999999989,0.3,-0.2,-0.3,-94.0,
23.731709999999907,0.3,-0.2,-0.3,,0.54
23.741439999999898,0.4,0.5,0.7,,0.68
23.751249999999914,0.4,0.5,0.7,-93.4,
23.76105999999993,-0.4,0.0,0.4,,0.68
23.77087999999992,-0.4,0.0,0.4,,0.68
23.780689999999936,0.0,0.7,-0.5,-80.8,
23.790499999999952,0.0,0.7,-0.5,,0.95
23.800319999999942,0.9,-0.6,0.8,,0.86
23.81012999999996,0.9,-0.6,0.8,,0.86
23.819939999999974,-0.2,-0.7,-0.1,,-0.09
23.829759999999965,-0.2,-0.7,-0.1,,-0.09
23.83956999999998,-0.2,-0.7,-0.1,-66.6,
23.849379999999996,1.3,1.0,-1.5,,0.77
23.859109999999987,1.3,1.0,-1.5,,0.77
23.868929999999978,0.0,-0.6,0.7,,0.68
23.878739999999993,0.0,-0.6,0.7,-69.4,
23.888549999999896,-0.4,-0.5,0.4,,0.41
23.89837,-0.4,-0.5,0.4,,0.41
23.908179999999902,-0.5,1.2,0.2,,0.36
23.917989999999918,-0.5,1.2,0.2,,0.36
23.92780999999991,0.3,-0.6,0.8,,0.73
23.937619999999924,0.3,-0.6,0.8,-56.2,
23.94742999999994,-1.2,-0.2,-1.1,,0.77
23.95724999999993,-1.2,-0.2,-1.1,,0.77
23.966969999999947,-0.3,1.0,-0.5,,1.64
23.976789999999937,-0.3,1.0,-0.5,,1.64
23.986599999999953,0.5,-0.1,-1.4,,0.68
23.99640999999997,0.5,-0.1,-1.4,-51.8,
24.00622999999996,-1.0,-1.1,-0.1,-49.8,
24.016039999999975,-1.0,-1.1,-0.1,,1.0
24.02584999999999,-0.2,0.0,-0.3,-43.2,
24.035669999999982,-0.2,0.0,-0.3,,1.64
24.045479999999998,-0.2,0.0,-0.3,,1.0
24.0552899999999,-1.3,-0.6,1.0,,1.0
24.06510999999989,-1.3,-0.6,1.0,-39.8,
24.074919999999906,-0.7,-0.9,-0.5,,0.73
24.084729999999922,-0.7,-0.9,-0.5,,0.73
24.094459999999913,-0.1,0.8,-0.1,,1.64
24.104279999999903,-0.1,0.8,-0.1,,1.64
24.11408999999992,-1.4,-0.6,-0.3,,1.05
24.123899999999935,-1.4,-0.6,-0.3,-38.6,
24.133719999999926,-0.4,0.9,-0.3,,0.68
24.14352999999994,-0.4,0.9,-0.3,,0.68
24.153339999999957,-0.5,0.3,-0.1,,0.36
24.163159999999948,-0.5,0.3,-0.1,,0.36
24.172969999999964,-0.3,-0.9,-0.2,,1.64
24.18277999999998,-0.3,-0.9,-0.2,,1.64
24.19259999999997,-0.2,0.6,-0.5,-29.4,
24.202319999999986,-0.2,0.6,-0.5,,0.68
24.212139999999977,0.3,-0.1,0.1,-23.8,
24.221949999999993,0.3,-0.1,0.1,-23.8,
24.231759999999895,0.3,-0.1,0.1,,1.78
24.24158,-1.3,0.9,-0.5,,1.78
24.2513899999999,-1.3,0.9,-0.5,,1.78
24.261199999999917,0.6,-0.4,0.2,-28.0,
24.271019999999908,0.6,-0.4,0.2,,0.54
24.280829999999924,0.5,-0.2,-0.4,,1.14
24.29063999999994,0.5,-0.2,-0.4,,1.14
24.30045999999993,0.2,1.5,0.0,,1.27
24.310269999999946,0.2,1.5,0.0,,1.27
24.319999999999936,-0.6,0.1,-0.3,-26.4,
24.329809999999952,-0.6,0.1,-0.3,,1.64
24.339619999999968,1.1,0.2,-0.2,,0.36
24.34943999999996,1.1,0.2,-0.2,-21.6,
24.359249999999975,0.4,-0.2,0.1,,1.14
24.36905999999999,0.4,-0.2,0.1,,1.14
24.37887999999998,-1.0,0.1,-0.3,,1.64
24.388689999999997,-1.0,0.1,-0.3,,1.64
24.3984999999999,0.3,-1.5,-0.4,,1.46
24.40831999999989,0.3,-1.5,-0.4,-18.0,
24.418129999999906,0.3,-1.5,-0.4,,1.41
24.42793999999992,-0.3,-0.3,-0.3,,1.41
24.437669999999912,-0.3,-0.3,-0.3,,1.41
24.447489999999902,1.2,0.2,-0.7,,0.36
24.45729999999992,1.2,0.2,-0.7,,0.36
24.467109999999934,0.9,1.5,-0.3,,0.59
24.476929999999925,0.9,1.5,-0.3,-16.8,
24.48673999999994,0.2,-0.5,0.6,,0.73
24.496549999999957,0.2,-0.5,0.6,,0.73
24.506369999999947,-0.4,-0.1,-0.6,,0.73
24.516179999999963,-0.4,-0.1,-0.6,,0.73
24.52598999999998,-0.3,0.3,-0.4,,0.86
24.53580999999997,-0.3,0.3,-0.4,-13.0,
24.545619999999985,0.4,0.1,0.8,-13.8,
24.555429999999888,0.4,0.1,0.8,,1.64
24.56515999999999,0.0,-0.2,0.1,,1.46
24.574969999999894,0.0,-0.2,0.1,-15.2,
24.584789999999998,0.1,0.5,0.2,,0.86
24.5945999999999,0.1,0.5,0.2,,0.86
24.604409999999916,0.1,0.3,-0.1,,1.78
24.614229999999907,0.1,0.3,-0.1,-16.6,
24.624039999999923,0.1,0.3,-0.1,,1.64
24.63384999999994,-0.7,1.1,0.3,,1.64
24.64366999999993,-0.7,1.1,0.3,,1.64
24.653479999999945,0.4,0.0,0.4,,0.73
24.66328999999996,0.4,0.0,0.4,,0.73
24.67310999999995,0.1,-0.1,0.0,-7.6,
24.682839999999942,0.1,-0.1,0.0,,0.54
24.692649999999958,-0.6,0.3,-1.5,,0.54
24.702459999999974,-0.6,0.3,-1.5,-10.4,
24.712279999999964,0.1,-0.7,0.4,,1.96
24.72208999999998,0.1,-0.7,0.4,,1.96
24.731899999999996,0.1,-0.5,0.1,-7.8,
24.741719999999987,0.1,-0.5,0.1,,0.36
24.75152999999989,0.4,0.6,-0.3,,1.64
24.761339999999905,0.4,0.6,-0.3,-12.4,
24.771159999999895,-0.2,0.0,-0.2,,0.54
24.78096999999991,-0.2,0.0,-0.2,,0.54
24.7906999999999,-1.2,-0.9,0.0,,0.36
24.800509999999917,-1.2,-0.9,0.0,,0.36
24.810319999999933,-0.8,0.5,-0.2,,0.95
24.820139999999924,-0.8,0.5,-0.2,-4.8,
24.82994999999994,-0.8,0.5,-0.2,-4.8,
24.839759999999956,0.1,-0.1,-0.2,,1.64
24.849579999999946,0.1,-0.1,-0.2,,1.64
24.859389999999962,-0.8,-0.8,-0.4,,0.68
24.869199999999978,-0.8,-0.8,-0.4,,0.68
24.87901999999997,0.9,-0.1,-0.2,,0.86
24.888829999999984,0.9,-0.1,-0.2,-3.4,
24.898639999999887,0.2,0.5,0.3,-4.8,
24.90845999999999,0.2,0.5,0.3,,0.41
24.918179999999893,-0.4,0.9,0.3,,0.68
24.927999999999997,-0.4,0.9,0.3,,0.68
24.9378099999999,0.0,0.4,0.1,,1.05
24.947619999999915,0.0,0.4,0.1,,1.05
24.957439999999906,0.2,0.3,0.2,-8.2,
24.967249999999922,0.2,0.3,0.2,,0.73
24.977059999999938,-0.7,0.5,-0.8,,0.82
24.98687999999993,-0.7,0.5,-0.8,,0.82
24.996689999999944,0.4,0.4,-0.2,,0.91
25.00649999999996,0.4,0.4,-0.2,,0.91
25.01631999999995,0.4,0.4,-0.2,-8.2,
25.026129999999966,1.1,0.1,0.1,-8.2,
25.035859999999957,1.1,0.1,0.1,,0.68
25.045669999999973,0.2,0.1,-0.1,,1.64
25.055489999999963,0.2,0.1,-0.1,-5.2,
25.06529999999998,0.6,-1.1,-0.7,,0.63
25.075109999999995,0.6,-1.1,-0.7,,0.63
25.084929999999986,0.5,-0.1,0.2,-2.0,
25.094739999999888,0.5,-0.1,0.2,,0.36
25.104549999999904,-0.3,0.5,-0.3,,0.82
25.114369999999894,-0.3,0.5,-0.3,-4.4,
25.12417999999991,0.9,0.0,0.0,,1.46
25.133989999999926,0.9,0.0,0.0,,1.46
25.143809999999917,1.3,0.2,0.4,,1.96
25.153619999999933,1.3,0.2,0.4,,1.96
25.163349999999923,0.2,-0.1,-0.2,,1.32
25.17315999999994,0.2,-0.1,-0.2,-2.0,
25.182969999999955,-1.5,-0.3,-1.0,-0.6,
25.192789999999945,-1.5,-0.3,-1.0,,0.73
25.20259999999996,-1.5,-0.3,-1.0,-4.8,
25.212409999999977,-0.5,-0.9,0.4,,0.22
25.222229999999968,-0.5,-0.9,0.4,,0.22
25.232039999999984,-0.3,0.8,-0.5,,1.64
25.24185,-0.3,0.8,-0.5,-2.4,
25.25166999999999,-0.4,0.4,-0.3,,1.91
25.261479999999892,-0.4,0.4,-0.3,,1.91
25.271289999999908,0.0,0.0,0.4,,0.36
25.2811099999999,0.0,0.0,0.4,,0.36
25.29083999999989,0.1,0.9,0.0,,1.59
25.300649999999905,0.1,0.9,0.0,,1.59
25.31045999999992,0.8,0.0,0.1,-1.2,
25.32027999999991,0.8,0.0,0.1,,0.73
25.330089999999927,-0.8,-0.6,-0.2,,0.36
25.339899999999943,-0.8,-0.6,-0.2,,0.36
25.349719999999934,0.4,0.2,-0.2,,0.45
25.35952999999995,0.4,0.2,-0.2,,0.45
25.369339999999966,1.0,0.2,1.5,-3.8,
25.379159999999956,1.0,0.2,1.5,,1.64
25.388879999999972,-0.9,0.8,-0.2,,0.45
25.398699999999963,-0.9,0.8,-0.2,,0.45
25.40850999999998,-0.9,0.8,-0.2,,1.69
25.418319999999994,-0.2,-0.2,1.1,,1.69
25.428139999999985,-0.2,-0.2,1.1,,1.69
25.437949999999887,0.2,0.1,-0.4,-2.4,
25.447759999999903,0.2,0.1,-0.4,,1.96
25.457579999999894,0.4,0.0,-0.5,,0.36
25.46738999999991,0.4,0.0,-0.5,-2.2,
25.477199999999925,0.2,0.1,-0.1,,0.36
25.487019999999916,0.2,0.1,-0.1,,0.36
25.49682999999993,0.4,0.6,0.0,1.6,
25.506639999999948,0.4,0.6,0.0,,0.68
25.516369999999938,-0.3,0.7,-0.3,,0.36
25.526179999999954,-0.3,0.7,-0.3,-0.6,
25.535999999999945,0.4,-1.6,0.2,,0.73
25.54580999999996,0.4,-1.6,0.2,,0.73
25.555619999999976,0.2,-0.2,0.9,,0.95
25.565439999999967,0.2,-0.2,0.9,,0.95
25.575249999999983,0.2,0.2,0.3,,1.64
25.58506,0.2,0.2,0.3,,1.64
25.59487999999999,0.2,0.2,0.3,,1.0
25.60468999999989,-0.4,0.0,-0.2,,1.0
25.614499999999907,-0.4,0.0,-0.2,,1.0
25.624319999999898,0.6,0.4,0.3,,0.68
25.634129999999914,0.6,0.4,0.3,,0.68
25.643859999999904,0.1,0.5,-0.4,,0.36
25.65366999999992,0.1,0.5,-0.4,5.0,
25.66348999999991,0.3,0.0,-1.5,-2.0,
25.673299999999927,0.3,0.0,-1.5,,0.36
25.683109999999942,0.3,0.0,0.6,,0.54
25.692929999999933,0.3,0.0,0.6,,0.54
25.70273999999995,0.1,0.2,0.2,,1.09
25.712549999999965,0.1,0.2,0.2,,1.09
25.722369999999955,0.1,1.2,-0.7,-1.2,
25.73217999999997,0.1,1.2,-0.7,,0.22
25.741989999999987,0.1,-1.0,0.4,,0.73
25.751719999999978,0.1,-1.0,0.4,,0.73
25.761619999999994,-0.1,0.0,0.0,,1.32
25.771349999999984,-0.1,0.0,0.0,,1.32
25.78116,-0.6,0.0,0.2,,1.96
25.790969999999902,-0.6,0.0,0.2,-3.8,
25.800789999999893,-0.6,0.0,0.2,,1.64
25.81059999999991,0.3,-0.6,0.0,,1.64
25.820409999999924,0.3,-0.6,0.0,-6.6,
25.830229999999915,-0.4,-0.3,-0.6,,0.36
25.84003999999993,-0.4,-0.3,-0.6,,0.36
25.849849999999947,0.2,-1.5,-0.4,3.6,
25.859669999999937,0.2,-1.5,-0.4,,0.68
25.869479999999953,0.2,-0.9,-1.0,,0.68
25.87928999999997,0.2,-0.9,-1.0,0.8,
25.88901999999996,-0.3,-0.5,-0.2,,0.95
25.89883999999995,-0.3,-0.5,-0.2,,0.95
25.908649999999966,0.1,0.5,0.1,,0.95
25.918459999999982,0.1,0.5,0.1,,0.95
25.928279999999972,-0.3,-1.0,0.0,,0.68
25.93808999999999,-0.3,-1.0,0.0,,0.68
25.94789999999989,0.0,-0.8,-0.2,,0.86
25.957719999999995,0.0,-0.8,-0.2,,0.86
25.967529999999897,1.5,0.0,0.0,,0.54
25.977339999999913,1.5,0.0,0.0,,0.54
25.987159999999903,1.5,0.0,0.0,,1.18
25.99687999999992,0.2,1.1,-0.4,,1.18
26.00669999999991,0.2,1.1,-0.4,2.0,
26.016509999999926,0.3,0.2,-0.2,-2.0,
26.02631999999994,0.3,0.2,-0.2,,1.0
26.036139999999932,0.8,0.1,-0.4,,1.32
26.045949999999948,0.8,0.1,-0.4,,1.32
26.055759999999964,-1.0,0.2,-0.1,,1.09
26.065579999999954,-1.0,0.2,-0.1,,1.09
26.07538999999997,1.4,0.3,0.3,-4.0,
26.085199999999986,1.4,0.3,0.3,,1.37
26.095019999999977,0.2,0.5,0.3,,0.36
26.104829999999993,0.2,0.5,0.3,,0.36
26.114559999999983,-0.4,0.1,0.1,,0.59
26.12437,-0.4,0.1,0.1,,0.59
26.1341799999999,0.2,0.3,0.2,3.6,
26.14399999999989,0.2,0.3,0.2,3.6,
26.153809999999908,0.9,-0.2,1.5,,0.41
26.163619999999923,0.9,-0.2,1.5,,0.41
26.173439999999914,-0.2,-0.4,0.0,,1.64
26.18324999999993,-0.2,-0.4,0.0,,1.64
26.193059999999946,-0.2,-0.4,0.0,-2.4,
26.202879999999936,-0.5,0.3,-1.6,-2.4,
26.212689999999952,-0.5,0.3,-1.6,,1.64
26.222499999999968,0.2,-0.4,0.2,,0.36
26.23222999999996,0.2,-0.4,0.2,3.0,
26.24204999999995,0.0,-0.3,-0.2,,1.14
26.251859999999965,0.0,-0.3,-0.2,,1.14
26.26166999999998,0.5,0.0,0.1,3.6,
26.27148999999997,0.5,0.0,0.1,,0.36
26.281299999999987,0.2,-1.2,0.4,,0.04
26.29110999999989,0.2,-1.2,0.4,-2.0,
26.300929999999994,-0.1,-0.7,0.8,,1.64
26.310739999999896,-0.1,-0.7,0.8,,1.64
26.320549999999912,-0.2,0.6,-0.1,,0.77
26.330369999999903,-0.2,0.6,-0.1,,0.77
26.34008999999992,0.3,-0.9,0.3,,1.32
26.34990999999991,0.3,-0.9,0.3,,1.32
26.359719999999925,-0.2,-0.6,-0.3,1.2,
26.36952999999994,-0.2,-0.6,-0.3,,0.95
26.37934999999993,-0.2,-0.6,-0.3,5.0,
26.389159999999947,0.0,-0.5,0.3,,0.68
26.398969999999963,0.0,-0.5,0.3,,0.68
26.408789999999954,-0.5,-0.6,-0.2,,0.22
26.41859999999997,-0.5,-0.6,-0.2,0.6,
26.428409999999985,-0.4,-0.3,-0.1,,0.54
26.438229999999976,-0.4,-0.3,-0.1,,0.54
26.448039999999992,0.0,-0.1,-0.4,,0.36
26.457849999999894,0.0,-0.1,-0.4,,0.36
26.46767,0.0,-1.4,0.0,,0.86
26.47739999999999,0.0,-1.4,0.0,,0.86
26.48720999999989,-0.3,0.2,-0.5,-2.0,
26.497019999999907,-0.3,0.2,-0.5,,0.54
26.506839999999897,1.0,0.0,-0.1,,0.73
26.516649999999913,1.0,0.0,-0.1,,0.73
26.52645999999993,0.6,-0.1,-0.1,0.4,
26.53627999999992,0.6,-0.1,-0.1,,1.64
26.546089999999936,1.3,1.0,-0.4,5.0,
26.55589999999995,1.3,1.0,-0.4,5.0,
26.565719999999942,0.3,-1.4,-0.2,,0.22
26.575439999999958,0.3,-1.4,-0.2,,0.22
26.58525999999995,0.3,-1.4,-0.2,,0.22
26.595069999999964,-1.4,0.0,1.0,,0.95
26.60487999999998,-1.4,0.0,1.0,,0.95
26.61469999999997,-0.1,0.5,0.1,3.0,
26.624509999999987,-0.1,0.5,0.1,,0.36
26.63431999999989,0.1,0.0,0.2,,0.36
26.644139999999993,0.1,0.0,0.2,,0.36
26.653949999999895,0.0,0.1,-0.2,,0.59
26.66375999999991,0.0,0.1,-0.2,,0.59
26.6735799999999,0.5,0.1,-0.1,-6.6,
26.683389999999918,0.5,0.1,-0.1,,1.64
26.693199999999933,0.4,-0.2,0.9,,1.5
26.702929999999924,0.4,-0.2,0.9,,1.5
26.71273999999994,0.0,-1.6,0.0,,1.46
26.72255999999993,0.0,-1.6,0.0,,1.46
26.732369999999946,-0.2,0.9,1.5,,1.64
26.742179999999962,-0.2,0.9,1.5,,1.64
26.751999999999953,0.1,-0.6,0.3,,0.54
26.76180999999997,0.1,-0.6,0.3,,0.54
26.771619999999984,0.1,-0.6,0.3,,0.73
26.781439999999975,-0.7,-0.7,0.6,,0.73
26.79124999999999,-0.7,-0.7,0.6,,0.73
26.801059999999893,0.1,0.3,-0.1,,1.0
26.810879999999997,0.1,0.3,-0.1,,1.0
26.8206899999999,-0.3,-0.6,0.2,,1.64
26.83041999999989,-0.3,-0.6,0.2,-6.6,
26.840229999999906,-0.1,0.0,-1.5,-4.0,
26.850049999999896,-0.1,0.0,-1.5,,0.41
26.859859999999912,-0.2,-1.4,-0.3,,0.95
26.869669999999928,-0.2,-1.4,-0.3,,0.95
26.87948999999992,-0.3,0.5,0.1,-6.6,
26.889299999999935,-0.3,0.5,0.1,,1.64
26.89910999999995,-0.5,-0.3,-0.5,-5.2,
26.90892999999994,-0.5,-0.3,-0.5,,1.96
26.918739999999957,0.0,0.1,-0.3,,0.54
26.928549999999973,0.0,0.1,-0.3,,0.54
26.938369999999964,0.4,-0.1,-1.5,,0.54
26.94817999999998,0.4,-0.1,-1.5,,0.54
26.957989999999995,0.0,-1.0,0.2,,0.91
26.967719999999986,0.0,-1.0,0.2,3.0,
26.977529999999888,0.0,-1.0,0.2,,0.77
26.987349999999992,0.4,0.0,-0.6,,0.77
26.997159999999894,0.4,0.0,-0.6,,0.77
27.00696999999991,0.0,-0.1,-0.4,,1.0
27.0167899999999,0.0,-0.1,-0.4,,1.0
27.026599999999917,-0.7,-1.1,-0.2,-0.6,
27.036409999999933,-0.7,-1.1,-0.2,,-0.09
27.046229999999923,0.8,-0.8,-1.3,,1.37
27.05603999999994,0.8,-0.8,-1.3,,1.37
27.065849999999955,0.5,-0.1,0.0,,0.68
27.075669999999946,0.5,-0.1,0.0,,0.68
27.085399999999936,-0.2,0.3,0.0,,1.64
27.095209999999952,-0.2,0.3,0.0,,1.64
27.105019999999968,1.5,-0.1,0.2,,0.86
27.11483999999996,1.5,-0.1,0.2,,0.86
27.124649999999974,0.6,1.4,0.3,,1.27
27.13445999999999,0.6,1.4,0.3,,1.27
27.14427999999998,-0.2,0.0,-0.2,,1.32
27.154089999999997,-0.2,0.0,-0.2,,1.32
27.1638999999999,-0.2,0.0,-0.2,,0.68
27.17371999999989,0.6,0.1,0.1,,0.68
27.183529999999905,0.6,0.1,0.1,-1.6,
27.19333999999992,0.4,0.2,-0.6,,1.64
27.20315999999991,0.4,0.2,-0.6,,1.64
27.212879999999927,-0.9,0.9,1.4,,0.54
27.222699999999918,-0.9,0.9,1.4,,0.54
27.232509999999934,0.3,0.4,0.1,,1.96
27.24231999999995,0.3,0.4,0.1,,1.96
27.25213999999994,0.8,-0.4,0.3,,1.96
27.261949999999956,0.8,-0.4,0.3,,1.96
27.271759999999972,-0.7,0.0,-0.2,,1.96
27.281579999999963,-0.7,0.0,-0.2,,1.96
27.29138999999998,-0.1,-1.3,-0.2,,1.96
27.301199999999994,-0.1,-1.3,-0.2,,1.96
27.311019999999985,0.5,-0.3,0.9,,0.68
27.320739999999887,0.5,-0.3,0.9,,0.68
27.33055999999999,0.1,0.4,-0.3,,0.41
27.340369999999893,0.1,0.4,-0.3,,0.41
27.35017999999991,0.1,0.4,-0.3,,1.05
27.3599999999999,0.4,-0.1,0.1,,1.05
27.369809999999916,0.4,-0.1,0.1,2.2,
27.37961999999993,0.1,-0.6,0.4,1.4,
27.389439999999922,0.1,-0.6,0.4,,0.41
27.399249999999938,0.3,-0.2,0.3,,1.5
27.409059999999954,0.3,-0.2,0.3,,1.5
27.418879999999945,-0.4,0.5,-1.0,,1.64
27.42868999999996,-0.4,0.5,-1.0,,1.64
27.438499999999976,0.3,-0.1,-0.2,0.2,
27.448319999999967,0.3,-0.1,-0.2,,0.77
27.458049999999957,-0.7,0.4,0.0,,0.91
27.467859999999973,-0.7,0.4,0.0,,0.91
27.47766999999999,0.0,0.4,-0.2,,1.78
27.48748999999998,0.0,0.4,-0.2,,1.78
27.497299999999996,0.3,-0.2,0.4,-0.6,
27.507109999999898,0.3,-0.2,0.4,,0.68
27.51692999999989,-0.3,-0.3,1.4,,1.64
27.526739999999904,-0.3,-0.3,1.4,,1.64
27.53654999999992,0.3,-0.6,-0.7,3.6,
27.54636999999991,0.3,-0.6,-0.7,,1.0
27.556089999999926,0.3,-0.6,-0.7,3.6,
27.565909999999917,0.1,-0.1,1.3,,0.36
27.575719999999933,0.1,-0.1,1.3,,0.36
27.58552999999995,-0.3,0.5,-0.1,,1.0
27.59534999999994,-0.3,0.5,-0.1,3.0,
27.605159999999955,0.5,0.0,0.3,,1.32
27.61496999999997,0.5,0.0,0.3,,1.32
27.62478999999996,0.1,0.0,0.6,1.8,
27.634599999999978,0.1,0.0,0.6,,1.64
27.644409999999993,-1.3,-0.9,0.0,,0.77
27.654229999999984,-1.3,-0.9,0.0,4.0,
27.66404,0.0,1.2,-0.6,,0.68
27.673849999999902,0.0,1.2,-0.6,,0.68
27.683579999999893,-19.6,-15.1,-14.0,,1.46
27.693399999999997,-19.6,-15.1,-14.0,,1.46
27.7032099999999,0.1,-0.6,10.7,6.4,
27.713019999999915,0.1,-0.6,10.7,,0.36
27.722839999999906,9.1,-3.7,21.8,-4.8,
27.73264999999992,9.1,-3.7,21.8,,0.36
27.742459999999937,2.1,1.2,5.6,,1.78
27.752279999999928,2.1,1.2,5.6,,1.78
27.762089999999944,2.1,1.2,5.6,,1.78
27.77189999999996,-1.4,-0.6,-1.6,,0.54
27.78171999999995,-1.4,-0.6,-1.6,,0.54
27.791529999999966,1.3,0.1,0.7,-6.6,
27.801339999999982,1.3,0.1,0.7,,1.64
27.811069999999972,-0.7,-0.3,-0.3,,0.63
27.82087999999999,-0.7,-0.3,-0.3,,0.63
27.83069999999998,-0.4,0.0,0.0,,0.36
27.840509999999995,-0.4,0.0,0.0,,0.36
27.850319999999897,0.2,0.2,0.1,1.2,
27.860139999999888,0.2,0.2,0.1,,0.86
27.869949999999903,-0.6,0.5,-1.6,,0.91
27.87975999999992,-0.6,0.5,-1.6,,0.91
27.88957999999991,0.1,-0.2,0.4,,1.0
27.899389999999926,0.1,-0.2,0.4,,1.0
27.90919999999994,0.1,0.1,0.2,,0.45
27.919019999999932,0.1,0.1,0.2,1.2,
27.928739999999948,1.0,0.1,0.3,,1.46
27.93855999999994,1.0,0.1,0.3,,1.46
27.948369999999954,1.0,0.1,0.3,,1.64
27.95817999999997,0.2,0.2,0.4,,1.64
27.96799999999996,0.2,0.2,0.4,,1.64
27.977809999999977,0.5,-0.2,1.3,,1.46
27.987619999999993,0.5,-0.2,1.3,,1.46
27.997439999999983,-0.3,0.0,0.3,,0.68
28.00725,-0.3,0.0,0.3,,0.68
28.0170599999999,0.0,0.4,0.7,,0.77
28.026879999999892,0.0,0.4,0.7,,0.77
28.036689999999908,0.1,-0.4,0.6,,1.91
28.046419999999898,0.1,-0.4,0.6,,1.91
28.056229999999914,-0.7,-0.4,-0.1,0.8,
28.066049999999905,-0.7,-0.4,-0.1,,0.68
28.07585999999992,1.3,0.5,-0.3,,0.54
28.085669999999936,1.3,0.5,-0.3,-2.0,
28.095489999999927,0.2,-1.5,-0.1,,0.68
28.105299999999943,0.2,-1.5,-0.1,,0.68
28.11510999999996,-0.9,-0.7,-1.0,,1.78
28.12492999999995,-0.9,-0.7,-1.0,,1.78
28.134739999999965,-0.9,-0.7,-1.0,,0.63
28.14454999999998,0.2,0.4,0.1,1.2,
28.15436999999997,0.2,0.4,0.1,,0.63
28.164179999999988,0.2,-0.6,-0.2,,1.18
28.173909999999978,0.2,-0.6,-0.2,,1.18
28.183719999999994,0.7,-0.9,-0.2,,1.27
28.193529999999896,0.7,-0.9,-0.2,,1.27
28.203349999999887,-0.2,0.6,-0.3,,1.09
28.213159999999903,-0.2,0.6,-0.3,-2.0,
28.22296999999992,-0.1,-0.4,0.2,,1.14
28.23278999999991,-0.1,-0.4,0.2,,1.14
28.242599999999925,-0.5,-0.8,-0.3,,1.27
28.25240999999994,-0.5,-0.8,-0.3,,1.27
28.26222999999993,-0.5,0.5,-0.5,,0.36
28.272039999999947,-0.5,0.5,-0.5,-2.0,
28.281769999999938,-0.2,-0.2,-0.5,,0.27
28.291579999999954,-0.2,-0.2,-0.5,,0.27
28.301399999999944,-0.4,1.1,0.2,,0.86
28.31120999999996,-0.4,1.1,0.2,,0.86
28.321019999999976,-0.4,-0.1,1.2,,0.41
28.330839999999966,-0.4,-0.1,1.2,,0.41
28.340649999999982,-0.4,-0.1,1.2,,0.36
28.350459999999998,-0.2,-1.0,0.1,,0.36
28.36027999999999,-0.2,-1.0,0.1,,0.36
28.37008999999989,0.0,0.3,0.3,,0.77
28.379899999999907,0.0,0.3,0.3,,0.77
28.389719999999897,0.9,-0.1,-0.3,,1.32
28.399439999999913,0.9,-0.1,-0.3,,1.32
28.409259999999904,0.0,-1.2,-0.2,-6.0,
28.41906999999992,0.0,-1.2,-0.2,,1.64
28.428879999999936,-1.3,0.4,0.0,,1.46
28.438699999999926,-1.3,0.4,0.0,,1.46
28.448509999999942,0.8,-1.2,0.3,,1.64
28.458319999999958,0.8,-1.2,0.3,,1.64
28.46813999999995,0.1,0.1,0.1,-0.6,
28.477949999999964,0.1,0.1,0.1,,0.68
28.48775999999998,-0.5,0.8,-0.4,,0.36
28.49757999999997,-0.5,0.8,-0.4,3.6,
28.507389999999987,-0.2,0.2,0.7,,1.27
28.517119999999977,-0.2,0.2,0.7,,1.27
28.526929999999993,-0.2,0.2,0.7,5.0,
28.536739999999895,0.4,-0.3,0.3,,0.36
28.54656,0.4,-0.3,0.3,,0.36
28.5563699999999,0.2,0.6,-0.1,3.0,
28.566179999999918,0.2,0.6,-0.1,3.0,
28.575999999999908,0.6,-0.1,0.1,,1.0
28.585809999999924,0.6,-0.1,0.1,,1.0
28.59561999999994,0.0,0.1,0.6,,1.96
28.60543999999993,0.0,0.1,0.6,,1.96
28.615249999999946,0.8,0.5,0.2,-4.0,
28.625059999999962,0.8,0.5,0.2,-4.0,
28.634789999999953,0.1,-0.5,0.0,,1.14
28.644609999999943,0.1,-0.5,0.0,,1.14
28.65441999999996,0.1,-1.0,0.7,,1.0
28.664229999999975,0.1,-1.0,0.7,,1.0
28.674049999999966,0.2,0.0,0.4,,0.82
28.68385999999998,0.2,0.0,0.4,3.6,
28.693669999999997,-0.2,-0.4,0.3,,1.46
28.703489999999988,-0.2,-0.4,0.3,,1.46
28.71329999999989,-1.2,-0.3,0.4,-2.0,
28.723109999999906,-1.2,-0.3,0.4,,0.54
28.732929999999897,-1.2,-0.3,0.4,,0.77
28.742739999999912,0.0,1.0,-0.3,,0.77
28.75254999999993,0.0,1.0,-0.3,,0.77
28.76227999999992,0.5,-0.6,-1.6,,1.96
28.772089999999935,0.5,-0.6,-1.6,0.4,
28.781909999999925,-0.7,-0.7,-0.2,,0.73
28.79171999999994,-0.7,-0.7,-0.2,,0.73
28.801529999999957,-0.4,-0.1,0.0,,0.54
28.811349999999948,-0.4,-0.1,0.0,,0.54
28.821159999999963,0.2,0.6,-0.4,,0.95
28.83096999999998,0.2,0.6,-0.4,,0.95
28.84078999999997,0.0,-0.1,-0.8,,0.68
28.850599999999986,0.0,-0.1,-0.8,,0.68
28.860409999999888,-0.6,0.2,0.1,,0.95
28.870229999999992,-0.6,0.2,0.1,,0.95
28.880039999999894,0.1,0.3,0.0,-2.6,
28.88984999999991,0.1,0.3,0.0,,0.73
28.8995799999999,-0.5,0.4,-0.3,5.0,
28.90939999999989,-0.5,0.4,-0.3,5.0,
28.919209999999907,-0.5,0.4,-0.3,,0.54
28.929019999999923,0.8,0.2,-0.6,,0.54
28.938839999999914,0.8,0.2,-0.6,,0.54
28.94864999999993,0.4,0.6,1.4,,0.68
28.958459999999945,0.4,0.6,1.4,,0.68
28.968279999999936,0.3,0.0,0.0,-3.4,
28.978089999999952,0.3,0.0,0.0,,0.54
28.987899999999968,-0.3,0.2,-0.5,,1.37
28.99771999999996,-0.3,0.2,-0.5,,1.37
29.007529999999974,0.3,0.2,0.3,,1.64
29.017259999999965,0.3,0.2,0.3,,1.64
29.02706999999998,0.1,0.6,0.0,,0.41
29.036879999999996,0.1,0.6,0.0,-0.6,
29.046699999999987,-0.2,0.3,-0.2,,1.64
29.05650999999989,-0.2,0.3,-0.2,,1.64
29.066319999999905,0.2,-1.0,0.1,,0.45
29.076139999999896,0.2,-1.0,0.1,,0.45
29.08594999999991,0.7,-0.3,-0.2,,0.77
29.095759999999927,0.7,-0.3,-0.2,-3.4,
29.105579999999918,-0.5,-0.4,1.0,,1.64
29.115389999999934,-0.5,-0.4,1.0,,1.64
29.125119999999924,-0.5,-0.4,1.0,,0.86
29.13492999999994,1.1,-1.1,-0.1,,0.86
29.144739999999956,1.1,-1.1,-0.1,,0.86
29.154559999999947,-0.4,-1.0,-0.2,,0.41
29.164369999999963,-0.4,-1.0,-0.2,,0.41
29.17417999999998,-0.2,-0.1,1.5,,0.54
29.18399999999997,-0.2,-0.1,1.5,,0.54
29.193809999999985,-0.5,-0.3,-0.4,,0.95
29.203619999999887,-0.5,-0.3,-0.4,,0.95
29.21343999999999,-0.2,0.7,-0.7,,0.59
29.223249999999894,-0.2,0.7,-0.7,,0.59
29.23305999999991,1.3,0.2,0.3,-5.2,
29.2428799999999,1.3,0.2,0.3,,1.96
29.25260999999989,-0.7,0.9,-0.3,,0.36
29.262419999999906,-0.7,0.9,-0.3,5.0,
29.272229999999922,-0.5,0.1,-0.2,,0.41
29.282049999999913,-0.5,0.1,-0.2,,0.41
29.29185999999993,0.5,-0.8,0.1,,0.36
29.301669999999945,0.5,-0.8,0.1,,0.36
29.311489999999935,0.5,-0.8,0.1,,0.91
29.32129999999995,-1.0,1.0,-0.1,2.2,
29.331109999999967,-1.0,1.0,-0.1,,0.91
29.340929999999958,0.3,0.0,0.1,,1.0
29.350739999999973,0.3,0.0,0.1,,1.0
29.36054999999999,0.7,-0.1,-0.3,,1.96
29.37027999999998,0.7,-0.1,-0.3,,1.96
29.380089999999996,-0.7,0.0,1.4,,1.64
29.389909999999986,-0.7,0.0,1.4,-6.6,
29.39971999999989,-0.5,0.0,-0.7,,0.86
29.409529999999904,-0.5,0.0,-0.7,,0.86
29.419349999999895,0.6,-0.5,0.0,,0.59
29.42915999999991,0.6,-0.5,0.0,,0.59
29.438969999999927,-0.5,0.3,0.3,,0.91
29.448789999999917,-0.5,0.3,0.3,3.0,
29.458599999999933,0.4,-0.2,-0.5,,0.68
29.46840999999995,0.4,-0.2,-0.5,,0.68
29.47822999999994,0.4,0.5,1.5,,0.95
29.488039999999955,0.4,0.5,1.5,,0.95
29.497769999999946,0.3,0.6,-0.2,,0.63
29.50757999999996,0.3,0.6,-0.2,,0.63
29.517399999999952,0.3,0.6,-0.2,,0.36
29.527209999999968,0.0,-0.3,0.0,,0.36
29.537019999999984,0.0,-0.3,0.0,,0.36
29.546839999999975,0.9,0.2,0.4,,0.68
29.55664999999999,0.9,0.2,0.4,,0.68
29.566459999999893,0.5,0.2,0.0,,0.95
29.576279999999997,0.5,0.2,0.0,,0.95
29.5860899999999,-1.3,0.3,-0.3,-3.4,
29.595899999999915,-1.3,0.3,-0.3,,1.0
29.605629999999906,-0.3,-1.5,0.7,,0.68
29.61543999999992,-0.3,-1.5,0.7,-1.4,
29.625259999999912,0.4,0.3,-1.5,,0.77
29.635069999999928,0.4,0.3,-1.5,,0.77
29.644879999999944,0.4,-0.2,-0.4,-6.6,
29.654699999999934,0.4,-0.2,-0.4,,1.64
29.66450999999995,0.2,-1.1,0.3,,1.32
29.674319999999966,0.2,-1.1,0.3,-6.6,
29.684139999999957,-0.3,-0.2,0.3,,1.46
29.693949999999973,-0.3,-0.2,0.3,,1.46
29.70375999999999,-0.3,-0.2,0.3,3.6,
29.71357999999998,0.1,0.0,-0.3,,0.68
29.723389999999995,0.1,0.0,-0.3,,0.68
29.733119999999985,0.9,-0.2,1.5,1.6,
29.742929999999888,0.9,-0.2,1.5,1.6,
29.752739999999903,0.4,0.3,0.2,,1.14
29.762559999999894,0.4,0.3,0.2,,1.14
29.77236999999991,0.1,0.0,-0.1,,0.54
29.782179999999926,0.1,0.0,-0.1,,0.54
29.791999999999916,-0.3,-0.4,-0.1,,1.0
29.801809999999932,-0.3,-0.4,-0.1,1.2,
29.811619999999948,0.0,-1.4,0.0,,1.64
29.82143999999994,0.0,-1.4,0.0,,1.64
29.831249999999955,0.6,-0.3,1.5,,0.54
29.840979999999945,0.6,-0.3,1.5,,0.54
29.85078999999996,0.0,0.9,-0.2,,0.27
29.86060999999995,0.0,0.9,-0.2,0.2,
29.870419999999967,-0.2,-0.3,-0.4,-5.2,
29.880229999999983,-0.2,-0.3,-0.4,,1.64
29.890049999999974,0.4,0.0,0.4,-4.0,
29.89985999999999,0.4,0.0,0.4,,0.68
29.909669999999892,0.4,0.0,0.4,,0.95
29.919489999999996,-0.6,0.1,0.0,,0.95
29.9292999999999,-0.6,0.1,0.0,1.2,
29.939109999999914,1.4,0.5,0.2,2.2,
29.948929999999905,1.4,0.5,0.2,,0.68
29.95864999999992,0.4,-0.1,0.2,,1.64
29.96846999999991,0.4,-0.1,0.2,,1.64
29.978279999999927,0.0,0.1,-1.4,,0.54
29.988089999999943,0.0,0.1,-1.4,,0.54
29.997909999999933,0.2,0.2,0.1,0.4,
30.00771999999995,0.2,0.2,0.1,,1.64
30.017529999999965,-0.1,0.1,0.1,,0.36
30.027349999999956,-0.1,0.1,0.1,-1.2,
30.03715999999997,-0.5,0.5,0.1,,1.64
30.046969999999988,-0.5,0.5,0.1,,1.64
30.056789999999978,-0.7,0.0,-0.1,-1.2,
30.066599999999994,-0.7,0.0,-0.1,,0.68
30.076409999999896,-1.0,0.0,0.4,,1.32
30.086139999999887,-1.0,0.0,0.4,0.4,
30.09595999999999,-1.0,0.0,0.4,,0.36
30.105769999999893,0.2,1.4,0.4,,0.36
30.11557999999991,0.2,1.4,0.4,,0.36
30.1253999999999,0.1,0.9,-1.3,,0.95
30.135209999999915,0.1,0.9,-1.3,,0.95
30.14501999999993,-0.5,-1.1,0.4,-0.6,
30.154839999999922,-0.5,-1.1,0.4,-0.6,
30.164649999999938,-0.2,0.1,-0.5,,0.54
30.174459999999954,-0.2,0.1,-0.5,,0.54
30.184279999999944,0.1,0.3,-0.5,0.8,
30.19408999999996,0.1,0.3,-0.5,,1.27
30.20381999999995,-0.3,-0.4,0.2,,0.04
30.213629999999966,-0.3,-0.4,0.2,-2.0,
30.223439999999982,-0.1,-0.1,-0.3,,0.36
30.233259999999973,-0.1,-0.1,-0.3,,0.36
30.24306999999999,-0.5,-0.1,0.3,,0.68
30.25287999999989,-0.5,-0.1,0.3,,0.68
30.262699999999995,-1.3,-0.6,-0.4,,0.41
30.272509999999897,-1.3,-0.6,-0.4,,0.41
30.282319999999913,-1.3,-0.6,-0.4,,0.36
30.292139999999904,-0.1,1.4,-0.2,,0.36
30.30194999999992,-0.1,1.4,-0.2,,0.82
30.311759999999936,0.1,0.4,-0.5,,0.82
30.321489999999926,0.1,0.4,-0.5,,0.82
30.331299999999942,-0.2,-0.3,-0.2,,1.09
30.341119999999933,-0.2,-0.3,-0.2,0.8,
30.35092999999995,-0.7,0.4,-0.4,-0.6,
30.360739999999964,-0.7,0.4,-0.4,,0.36
30.370559999999955,0.3,0.3,0.0,,0.77
30.38036999999997,0.3,0.3,0.0,3.6,
30.390179999999987,-0.2,0.3,-0.6,,0.41
30.399999999999977,-0.2,0.3,-0.6,,0.41
30.409809999999993,0.7,-0.1,1.1,-3.8,
30.419619999999895,0.7,-0.1,1.1,-3.8,
30.42944,0.6,-0.2,0.3,,0.54
30.43916999999999,0.6,-0.2,0.3,3.6,
30.448979999999892,-0.8,0.3,1.2,,0.68
30.458789999999908,-0.8,0.3,1.2,,0.68
30.4686099999999,-0.1,0.5,-0.2,,0.36
30.478419999999915,-0.1,0.5,-0.2,-2.0,
30.48822999999993,-0.1,0.5,-0.2,,0.59
30.49804999999992,0.1,-0.2,0.0,0.2,
30.507859999999937,0.1,-0.2,0.0,0.2,
30.517669999999953,0.8,-0.1,-0.2,,0.31
30.527489999999943,0.8,-0.1,-0.2,,0.31
30.53729999999996,-0.3,1.5,0.4,3.6,
30.547109999999975,-0.3,1.5,0.4,,0.36
30.556929999999966,-1.3,0.1,0.0,,0.41
30.56673999999998,-1.3,0.1,0.0,0.2,
30.576469999999972,0.8,-0.3,0.0,,1.0
30.586279999999988,0.8,-0.3,0.0,,1.0
30.59608999999989,0.5,0.4,0.3,,0.41
30.605909999999994,0.5,0.4,0.3,,0.41
30.615719999999897,0.6,-0.3,0.7,2.2,
30.625529999999912,0.6,-0.3,0.7,,1.0
30.635349999999903,-0.5,-0.5,0.6,,1.96
30.64515999999992,-0.5,-0.5,0.6,,1.96
30.654969999999935,-1.4,0.2,0.2,,0.73
30.664789999999925,-1.4,0.2,0.2,,0.73
30.67459999999994,0.3,-0.3,-0.3,,0.95
30.68432999999993,0.3,-0.3,-0.3,,0.95
30.694139999999948,0.3,-0.3,-0.3,,0.95
30.703959999999938,-1.6,-0.4,0.3,0.8,
30.713769999999954,-1.6,-0.4,0.3,,0.68
30.72357999999997,0.3,-0.7,-0.5,,0.36
30.73339999999996,0.3,-0.7,-0.5,-4.0,
30.743209999999976,0.0,-0.8,0.8,,1.64
30.753019999999992,0.0,-0.8,0.8,,1.64
30.762839999999983,-0.6,-0.3,-0.1,-4.4,
30.77265,-0.6,-0.3,-0.1,-4.4,
30.7824599999999,-0.3,0.4,-0.2,,0.54
30.79218999999989,-0.3,0.4,-0.2,-2.0,
30.801999999999907,-1.3,-0.6,-0.2,,1.32
30.811819999999898,-1.3,-0.6,-0.2,,1.32
30.821629999999914,-0.1,-0.6,-0.2,,0.41
30.83143999999993,-0.1,-0.6,-0.2,3.0,
30.84125999999992,0.5,-0.3,0.1,,1.64
30.851069999999936,0.5,-0.3,0.1,,1.64
30.860879999999952,-1.4,-1.1,-0.5,-3.4,
30.870699999999943,-1.4,-1.1,-0.5,,1.14
30.88050999999996,-1.4,-1.1,-0.5,,1.96
30.890319999999974,-0.3,0.9,0.2,,1.96
30.900139999999965,-0.3,0.9,0.2,,1.96
30.90994999999998,-0.3,0.4,-1.5,,1.09
30.91967999999997,-0.3,0.4,-1.5,1.2,
30.929489999999987,-0.6,-0.6,-0.5,,1.14
30.93929999999989,-0.6,-0.6,-0.5,,1.14
30.949119999999994,-1.1,0.2,-0.3,,0.68
30.958929999999896,-1.1,0.2,-0.3,,0.68
30.96873999999991,0.1,-0.2,-0.4,2.2,
30.978559999999902,0.1,-0.2,-0.4,,0.95
30.988369999999918,-0.3,0.8,-0.3,,1.64
30.998179999999934,-0.3,0.8,-0.3,,1.64
31.007999999999925,0.1,-0.1,0.0,,0.36
31.01780999999994,0.1,-0.1,0.0,,0.36
31.027619999999956,-0.1,0.3,0.0,-2.6,
31.037349999999947,-0.1,0.3,0.0,,0.82
31.047169999999937,0.9,-0.3,0.2,,1.27
31.056979999999953,0.9,-0.3,0.2,0.8,
31.06678999999997,0.9,-0.3,0.2,,0.41
31.07660999999996,-0.1,0.2,-0.4,,0.41
31.086419999999976,-0.1,0.2,-0.4,,1.64
31.09622999999999,0.6,-0.2,0.0,,1.64
31.106049999999982,0.6,-0.2,0.0,,1.64
31.115859999999998,0.5,-0.1,0.0,-6.6,
31.1256699999999,0.5,-0.1,0.0,-6.6,
31.13548999999989,-0.4,-0.3,0.3,,1.27
31.145209999999906,-0.4,-0.3,0.3,,1.27
31.155109999999922,0.4,0.1,0.0,,0.41
31.164839999999913,0.4,0.1,0.0,,0.41
31.17464999999993,0.1,0.8,0.3,,1.0
31.18446999999992,0.1,0.8,0.3,1.6,
31.194279999999935,-0.4,0.6,0.3,,1.78
31.20408999999995,-0.4,0.6,0.3,,1.78
31.21390999999994,0.6,0.1,1.0,,1.0
31.223719999999958,0.6,0.1,1.0,,1.0
